rt,stimulus,response,type_of_trial,subject,trial_type,trial_index,time_elapsed,internal_node_id,run_id,condition,recorded_at,source_code_version,ip,user_agent,device,browser,browser_version,platform,platform_version,all_responses,accuracy,words,clue,board,pragmatics,accessibility,clue_type,question_order
18158,"<p style='font-size: 20px; padding-right: 10%; padding-left: 10%'> Welcome to the Connector experiment, and thank you for choosing to participate! <br> <br> Please read the following instructions so that you know how to play the game: <br> <br> You will be shown a board of 20 words. In addition to the board, you will see a clue. You should think of this clue as coming from a friend or teammate, who is trying to indicate two of the words on the board without directly saying either of them. So, your goal is to interpret the clue and select the two words that you think are the most likely targets for that clue. </p>",0,instructions,95311,html-button-response,0,18161,0.0-0.0-0.0,18,2,2/24/23 13:40,197583627f3f28595f5da48ed5410dcb,,"Mozilla/5.0 (Macintosh; Intel Mac OS X 10_15_7) AppleWebKit/605.1.15 (KHTML, like Gecko) Version/16.3 Safari/605.1.15",Macintosh,Safari,16.3,OS X,10_15_7,,,,,,,,,
57132,"<p style='font-size: 20px; padding-right: 10%; padding-left: 10%'> For example, consider the board below. Here, the clue is FOOD, and our player currently has FAMINE and CALORIE selected. <br> <br> <img src='example.png' style='border: 2px solid black'> <br> <br> When you are playing, simply click on words to select them. The words you click will turn green as a confirmation that they have been selected. If you accidentally click a word, or if you wish to change your choice, simply click a selected word to unselect it, and it will go back to gray. When exactly two words are selected, the Enter Responses button will illuminate. Once you are satisfied with your choices, click the Enter Responses button, and the experiment will automatically move to the next trial. <br> <br> To familiarize you with the game, there are four practice trials. As you play the game, be sure to attend to both speed and accuracy. In other words, make guesses that you think are likely to be correct, but don't linger too long on any one board. When you are ready, scroll down and click the button below to begin. <br> <br> There will be a pause between the practice trials and the experimental trials. </p>",0,instructions,95311,html-button-response,1,75295,0.0-0.0-1.0,18,2,2/24/23 13:40,197583627f3f28595f5da48ed5410dcb,,"Mozilla/5.0 (Macintosh; Intel Mac OS X 10_15_7) AppleWebKit/605.1.15 (KHTML, like Gecko) Version/16.3 Safari/605.1.15",Macintosh,Safari,16.3,OS X,10_15_7,,,,,,,,,
null,<p style='font-size: 48px;'>+</p>,null,fixation,95311,html-keyboard-response,2,76300,0.0-1.0-0.0,18,2,2/24/23 13:40,197583627f3f28595f5da48ed5410dcb,,"Mozilla/5.0 (Macintosh; Intel Mac OS X 10_15_7) AppleWebKit/605.1.15 (KHTML, like Gecko) Version/16.3 Safari/605.1.15",Macintosh,Safari,16.3,OS X,10_15_7,,,,,,,,,
18644,SPOOKY,"[""SCARY"",""SHADOWY""]",practice,95311,connector,3,94948,0.0-1.0-1.0,18,2,2/24/23 13:40,197583627f3f28595f5da48ed5410dcb,,"Mozilla/5.0 (Macintosh; Intel Mac OS X 10_15_7) AppleWebKit/605.1.15 (KHTML, like Gecko) Version/16.3 Safari/605.1.15",Macintosh,Safari,16.3,OS X,10_15_7,"[""SCARY"",""SUPERNATURAL"",""SHADOWY""]",0,scary-supernatural,spooky,"[""SCARY"",""SKI"",""FLORAL"",""SUPERNATURAL"",""PRESSURE"",""PAYBACK"",""PAINKILLER"",""SHADOWY"",""UNDERDOG"",""AIMLESS"",""VINTAGE"",""PAL"",""KNOCK"",""MINTS"",""VALID"",""SUBMISSION"",""ENSEMBLE"",""SINCERE"",""MAIZE"",""MICROSCOPE""]",0.000186499,75,high_a_high_p,
null,<p style='font-size: 48px;'>+</p>,null,fixation,95311,html-keyboard-response,4,95951,0.0-1.0-0.1,18,2,2/24/23 13:40,197583627f3f28595f5da48ed5410dcb,,"Mozilla/5.0 (Macintosh; Intel Mac OS X 10_15_7) AppleWebKit/605.1.15 (KHTML, like Gecko) Version/16.3 Safari/605.1.15",Macintosh,Safari,16.3,OS X,10_15_7,,,,,,,,,
54699,PEACOCK,"[""FEATHER"",""TOUCAN""]",practice,95311,connector,5,150653,0.0-1.0-1.1,18,2,2/24/23 13:40,197583627f3f28595f5da48ed5410dcb,,"Mozilla/5.0 (Macintosh; Intel Mac OS X 10_15_7) AppleWebKit/605.1.15 (KHTML, like Gecko) Version/16.3 Safari/605.1.15",Macintosh,Safari,16.3,OS X,10_15_7,"[""FEATHER"",""TOUCAN""]",1,feather-toucan,peacock,"[""TOUCAN"",""FORTIFY"",""NONCHALANT"",""CATS"",""WALKING"",""SURRENDER"",""CLIFF"",""ENERGETIC"",""RITUAL"",""ENGAGE"",""GIANT"",""MUFFLED"",""FOOTWEAR"",""FEATHER"",""WHO"",""MENACE"",""DONKEY"",""FLIGHTY"",""FOOLISH"",""POSTERIOR""]",0.000183463,15,high_a_high_p,
null,<p style='font-size: 48px;'>+</p>,null,fixation,95311,html-keyboard-response,6,151658,0.0-1.0-0.2,18,2,2/24/23 13:40,197583627f3f28595f5da48ed5410dcb,,"Mozilla/5.0 (Macintosh; Intel Mac OS X 10_15_7) AppleWebKit/605.1.15 (KHTML, like Gecko) Version/16.3 Safari/605.1.15",Macintosh,Safari,16.3,OS X,10_15_7,,,,,,,,,
14952,SWIMMER,"[""BOATING"",""LIFEGUARD""]",practice,95311,connector,7,166612,0.0-1.0-1.2,18,2,2/24/23 13:40,197583627f3f28595f5da48ed5410dcb,,"Mozilla/5.0 (Macintosh; Intel Mac OS X 10_15_7) AppleWebKit/605.1.15 (KHTML, like Gecko) Version/16.3 Safari/605.1.15",Macintosh,Safari,16.3,OS X,10_15_7,"[""BOATING"",""LIFEGUARD""]",1,lifeguard-boating,swimmer,"[""ADMISSION"",""RETIREMENT"",""THRIFTY"",""FOREVER"",""REJOICE"",""RECEIVER"",""DIAGONAL"",""TAPS"",""GUMMY"",""BOATING"",""GREED"",""ORANGES"",""STONE"",""STRIP"",""TAKEOVER"",""DECOMPOSITION"",""PERIMETER"",""LIFEGUARD"",""LIGHTENING"",""MISFORTUNE""]",0.000168199,18,high_a_high_p,
null,<p style='font-size: 48px;'>+</p>,null,fixation,95311,html-keyboard-response,8,167615,0.0-1.0-0.3,18,2,2/24/23 13:40,197583627f3f28595f5da48ed5410dcb,,"Mozilla/5.0 (Macintosh; Intel Mac OS X 10_15_7) AppleWebKit/605.1.15 (KHTML, like Gecko) Version/16.3 Safari/605.1.15",Macintosh,Safari,16.3,OS X,10_15_7,,,,,,,,,
19711,ROMANCE,"[""BOYFRIEND"",""DATING""]",practice,95311,connector,9,187330,0.0-1.0-1.3,18,2,2/24/23 13:40,197583627f3f28595f5da48ed5410dcb,,"Mozilla/5.0 (Macintosh; Intel Mac OS X 10_15_7) AppleWebKit/605.1.15 (KHTML, like Gecko) Version/16.3 Safari/605.1.15",Macintosh,Safari,16.3,OS X,10_15_7,"[""BOYFRIEND"",""DATING""]",1,dating-boyfriend,romance,"[""BUST"",""BOYFRIEND"",""PUDDLE"",""LAP"",""SCALES"",""WIMP"",""PILE"",""BOTHER"",""BICEPS"",""MULTICULTURAL"",""DATING"",""INTRUSIVE"",""ATTRACT"",""GEL"",""CREVASSE"",""LEGEND"",""EVANGELICAL"",""VISUALIZE"",""WINDOW"",""HAIL""]",0.000165017,34,high_a_high_p,
24519,"<p style='font-size: 20px; padding-right: 10%; padding-left: 10%'> This concludes the practice trials. <br> <br> When you are ready, please click the button below, and the experiment will automatically move you through the 60 experimental trials.</p>",0,move_to_experiment,95311,html-button-response,10,211850,0.0-2.0,18,2,2/24/23 13:40,197583627f3f28595f5da48ed5410dcb,,"Mozilla/5.0 (Macintosh; Intel Mac OS X 10_15_7) AppleWebKit/605.1.15 (KHTML, like Gecko) Version/16.3 Safari/605.1.15",Macintosh,Safari,16.3,OS X,10_15_7,,,,,,,,,
null,<p style='font-size: 48px;'>+</p>,null,fixation,95311,html-keyboard-response,11,212854,0.0-3.0-0.0,18,2,2/24/23 13:40,197583627f3f28595f5da48ed5410dcb,,"Mozilla/5.0 (Macintosh; Intel Mac OS X 10_15_7) AppleWebKit/605.1.15 (KHTML, like Gecko) Version/16.3 Safari/605.1.15",Macintosh,Safari,16.3,OS X,10_15_7,,,,,,,,,
32493,RELIGION,"[""BAPTIZE"",""PSYCHOSIS""]",,95311,connector,12,245349,0.0-3.0-1.0,18,2,2/24/23 13:40,197583627f3f28595f5da48ed5410dcb,,"Mozilla/5.0 (Macintosh; Intel Mac OS X 10_15_7) AppleWebKit/605.1.15 (KHTML, like Gecko) Version/16.3 Safari/605.1.15",Macintosh,Safari,16.3,OS X,10_15_7,"[""BAPTIZE"",""PSYCHOSIS""]",0,water-baptize,religion,"[""BAPTIZE"",""THIRST"",""GRUNT"",""FEET"",""GRUB"",""FINALE"",""SUNFLOWER"",""WADDLE"",""FORECAST"",""HELPFUL"",""DEAL"",""AFFECT"",""TERMITES"",""PSYCHOSIS"",""LOTTERY"",""TEENAGERS"",""LIVID"",""WATER"",""LOCOMOTIVE"",""ANTISEPTIC""]",0.0000918,144,high_a_low_p,
null,<p style='font-size: 48px;'>+</p>,null,fixation,95311,html-keyboard-response,13,246353,0.0-3.0-0.1,18,2,2/24/23 13:40,197583627f3f28595f5da48ed5410dcb,,"Mozilla/5.0 (Macintosh; Intel Mac OS X 10_15_7) AppleWebKit/605.1.15 (KHTML, like Gecko) Version/16.3 Safari/605.1.15",Macintosh,Safari,16.3,OS X,10_15_7,,,,,,,,,
23083,FAMILY,"[""APARTMENT"",""DOMESTIC""]",,95311,connector,14,269440,0.0-3.0-1.1,18,2,2/24/23 13:40,197583627f3f28595f5da48ed5410dcb,,"Mozilla/5.0 (Macintosh; Intel Mac OS X 10_15_7) AppleWebKit/605.1.15 (KHTML, like Gecko) Version/16.3 Safari/605.1.15",Macintosh,Safari,16.3,OS X,10_15_7,"[""APARTMENT"",""DOMESTIC""]",1,apartment-domestic,family,"[""DOMESTIC"",""CONSTELLATION"",""BITS"",""OBSESSION"",""PUN"",""RIVALRY"",""CROWBAR"",""METALLIC"",""GHOST"",""DOWNSTAIRS"",""FORMER"",""UPTIGHT"",""TRUMPET"",""ACTOR"",""HAPPENING"",""STRUGGLE"",""APARTMENT"",""DYNAMITE"",""BLADDER"",""KHAKI""]",0.0000895,74,high_a_low_p,
null,<p style='font-size: 48px;'>+</p>,null,fixation,95311,html-keyboard-response,15,270442,0.0-3.0-0.2,18,2,2/24/23 13:40,197583627f3f28595f5da48ed5410dcb,,"Mozilla/5.0 (Macintosh; Intel Mac OS X 10_15_7) AppleWebKit/605.1.15 (KHTML, like Gecko) Version/16.3 Safari/605.1.15",Macintosh,Safari,16.3,OS X,10_15_7,,,,,,,,,
12283,ARMY,"[""JEEP"",""SURVIVAL""]",,95311,connector,16,282728,0.0-3.0-1.2,18,2,2/24/23 13:40,197583627f3f28595f5da48ed5410dcb,,"Mozilla/5.0 (Macintosh; Intel Mac OS X 10_15_7) AppleWebKit/605.1.15 (KHTML, like Gecko) Version/16.3 Safari/605.1.15",Macintosh,Safari,16.3,OS X,10_15_7,"[""JEEP"",""SURVIVAL""]",0,speedometer-jeep,army,"[""SPEEDOMETER"",""EXPLORATION"",""SPENDING"",""JEEP"",""LOOSE"",""SURVIVAL"",""ARCHAIC"",""SELECT"",""STONED"",""ANDROID"",""ANOTHER"",""SUBSTITUTE"",""CIGAR"",""PLEASURE"",""ASPIRE"",""MUSTANG"",""GRIMACE"",""SOFTBALL"",""WEASEL"",""VISITOR""]",0.0000868,98,high_a_low_p,
null,<p style='font-size: 48px;'>+</p>,null,fixation,95311,html-keyboard-response,17,283731,0.0-3.0-0.3,18,2,2/24/23 13:40,197583627f3f28595f5da48ed5410dcb,,"Mozilla/5.0 (Macintosh; Intel Mac OS X 10_15_7) AppleWebKit/605.1.15 (KHTML, like Gecko) Version/16.3 Safari/605.1.15",Macintosh,Safari,16.3,OS X,10_15_7,,,,,,,,,
8510,FEES,"[""TAX"",""TUITION""]",,95311,connector,18,292244,0.0-3.0-1.3,18,2,2/24/23 13:40,197583627f3f28595f5da48ed5410dcb,,"Mozilla/5.0 (Macintosh; Intel Mac OS X 10_15_7) AppleWebKit/605.1.15 (KHTML, like Gecko) Version/16.3 Safari/605.1.15",Macintosh,Safari,16.3,OS X,10_15_7,"[""TAX"",""TUITION""]",1,tax-tuition,fees,"[""SHORTS"",""ASTROLOGY"",""SQUID"",""PYRAMIDS"",""FOOTSTOOL"",""GLAMOROUS"",""OPPOSITE"",""ASLEEP"",""TUITION"",""TAX"",""ANTICIPATION"",""HUNCH"",""AMPHIBIAN"",""BELONGINGS"",""QUID"",""GENTLEMAN"",""MANUAL"",""TUNES"",""DECEIT"",""CRINGE""]",0.000176827,63,high_a_high_p,
null,<p style='font-size: 48px;'>+</p>,null,fixation,95311,html-keyboard-response,19,293247,0.0-3.0-0.4,18,2,2/24/23 13:40,197583627f3f28595f5da48ed5410dcb,,"Mozilla/5.0 (Macintosh; Intel Mac OS X 10_15_7) AppleWebKit/605.1.15 (KHTML, like Gecko) Version/16.3 Safari/605.1.15",Macintosh,Safari,16.3,OS X,10_15_7,,,,,,,,,
31321,BARRACUDA,"[""POND"",""PIRANHA""]",,95311,connector,20,324570,0.0-3.0-1.4,18,2,2/24/23 13:40,197583627f3f28595f5da48ed5410dcb,,"Mozilla/5.0 (Macintosh; Intel Mac OS X 10_15_7) AppleWebKit/605.1.15 (KHTML, like Gecko) Version/16.3 Safari/605.1.15",Macintosh,Safari,16.3,OS X,10_15_7,"[""POND"",""PIRANHA""]",0,stickleback-piranha,barracuda,"[""PICTURESQUE"",""STICKLEBACK"",""IMITATE"",""ENDEAVOR"",""HOMAGE"",""PANCAKES"",""WHEELCHAIR"",""ANATOMY"",""CROWN"",""TESTIFY"",""POND"",""CLARITY"",""PERSON"",""BREATHING"",""RESOLUTION"",""PIRANHA"",""TEACHER"",""DRESSY"",""BREAKFAST"",""ATOM""]",0.000196759,7,low_a_high_p,
null,<p style='font-size: 48px;'>+</p>,null,fixation,95311,html-keyboard-response,21,325574,0.0-3.0-0.5,18,2,2/24/23 13:40,197583627f3f28595f5da48ed5410dcb,,"Mozilla/5.0 (Macintosh; Intel Mac OS X 10_15_7) AppleWebKit/605.1.15 (KHTML, like Gecko) Version/16.3 Safari/605.1.15",Macintosh,Safari,16.3,OS X,10_15_7,,,,,,,,,
77391,GREEN,"[""ZONE"",""BUSINESS""]",,95311,connector,22,402967,0.0-3.0-1.5,18,2,2/24/23 13:40,197583627f3f28595f5da48ed5410dcb,,"Mozilla/5.0 (Macintosh; Intel Mac OS X 10_15_7) AppleWebKit/605.1.15 (KHTML, like Gecko) Version/16.3 Safari/605.1.15",Macintosh,Safari,16.3,OS X,10_15_7,"[""ZONE"",""BUSINESS""]",0,carrots-nectarine,green,"[""BUSINESS"",""ANT"",""INFLATION"",""CARPENTRY"",""NECTARINE"",""CARROTS"",""DWELLING"",""SPECTACLE"",""ZONE"",""BLIMP"",""CLAPPING"",""SCAM"",""VOWEL"",""SALIENT"",""SOUR"",""SECRETARY"",""SECRETS"",""FREEZE"",""SONGS"",""TREASON""]",0.0000919,141,high_a_low_p,
null,<p style='font-size: 48px;'>+</p>,null,fixation,95311,html-keyboard-response,23,403970,0.0-3.0-0.6,18,2,2/24/23 13:40,197583627f3f28595f5da48ed5410dcb,,"Mozilla/5.0 (Macintosh; Intel Mac OS X 10_15_7) AppleWebKit/605.1.15 (KHTML, like Gecko) Version/16.3 Safari/605.1.15",Macintosh,Safari,16.3,OS X,10_15_7,,,,,,,,,
11792,APRICOT,"[""PEACHES"",""HONEYDEW""]",,95311,connector,24,415765,0.0-3.0-1.6,18,2,2/24/23 13:40,197583627f3f28595f5da48ed5410dcb,,"Mozilla/5.0 (Macintosh; Intel Mac OS X 10_15_7) AppleWebKit/605.1.15 (KHTML, like Gecko) Version/16.3 Safari/605.1.15",Macintosh,Safari,16.3,OS X,10_15_7,"[""PEACHES"",""HONEYDEW""]",0,peaches-mandarin,apricot,"[""BUCKLE"",""PEACHES"",""ZODIAC"",""INSIGHTFUL"",""DETER"",""VACCINATION"",""MIGRAINE"",""RESOURCES"",""BOLTS"",""POTENT"",""AUDIENCE"",""SINNER"",""MANDARIN"",""OPTIMISTIC"",""CONSIDERATION"",""SKITTISH"",""TOOTHACHE"",""HONEYDEW"",""ELEPHANT"",""SHOE""]",0.000191292,12,high_a_high_p,
null,<p style='font-size: 48px;'>+</p>,null,fixation,95311,html-keyboard-response,25,416767,0.0-3.0-0.7,18,2,2/24/23 13:40,197583627f3f28595f5da48ed5410dcb,,"Mozilla/5.0 (Macintosh; Intel Mac OS X 10_15_7) AppleWebKit/605.1.15 (KHTML, like Gecko) Version/16.3 Safari/605.1.15",Macintosh,Safari,16.3,OS X,10_15_7,,,,,,,,,
43428,CONSUME,"[""GRILL"",""TURKEY""]",,95311,connector,26,460199,0.0-3.0-1.7,18,2,2/24/23 13:40,197583627f3f28595f5da48ed5410dcb,,"Mozilla/5.0 (Macintosh; Intel Mac OS X 10_15_7) AppleWebKit/605.1.15 (KHTML, like Gecko) Version/16.3 Safari/605.1.15",Macintosh,Safari,16.3,OS X,10_15_7,"[""GRILL"",""TURKEY""]",0,grill-sirloin,consume,"[""TURKEY"",""GRILL"",""TWINS"",""ENRAGE"",""JAZZ"",""GAZE"",""REFRESHING"",""HUT"",""JET"",""FROST"",""SMOOTH"",""UNDERSTANDING"",""SIRLOIN"",""ELEVEN"",""DISBELIEVE"",""NOD"",""ARACHNID"",""HUGE"",""HARDCORE"",""CRAFTSMAN""]",0.0000909,8,low_a_low_p,
null,<p style='font-size: 48px;'>+</p>,null,fixation,95311,html-keyboard-response,27,461202,0.0-3.0-0.8,18,2,2/24/23 13:40,197583627f3f28595f5da48ed5410dcb,,"Mozilla/5.0 (Macintosh; Intel Mac OS X 10_15_7) AppleWebKit/605.1.15 (KHTML, like Gecko) Version/16.3 Safari/605.1.15",Macintosh,Safari,16.3,OS X,10_15_7,,,,,,,,,
19373,HORSE,"[""GALLOP"",""FOAL""]",,95311,connector,28,480578,0.0-3.0-1.8,18,2,2/24/23 13:40,197583627f3f28595f5da48ed5410dcb,,"Mozilla/5.0 (Macintosh; Intel Mac OS X 10_15_7) AppleWebKit/605.1.15 (KHTML, like Gecko) Version/16.3 Safari/605.1.15",Macintosh,Safari,16.3,OS X,10_15_7,"[""GALLOP"",""FOAL""]",1,gallop-foal,horse,"[""INFERENCE"",""NUTRITIOUS"",""GALLOP"",""OCCURRENCE"",""RUM"",""SPARSE"",""LOBOTOMY"",""IRONY"",""STRAW"",""PLACE"",""CHIP"",""METICULOUS"",""INTENDED"",""FOAL"",""FINALLY"",""MESH"",""SEQUENCE"",""ARTISTIC"",""EXTEND"",""LIVING""]",0.000202738,597,high_a_high_p,
null,<p style='font-size: 48px;'>+</p>,null,fixation,95311,html-keyboard-response,29,481580,0.0-3.0-0.9,18,2,2/24/23 13:40,197583627f3f28595f5da48ed5410dcb,,"Mozilla/5.0 (Macintosh; Intel Mac OS X 10_15_7) AppleWebKit/605.1.15 (KHTML, like Gecko) Version/16.3 Safari/605.1.15",Macintosh,Safari,16.3,OS X,10_15_7,,,,,,,,,
18523,MORE,"[""ENDLESS"",""MILLION""]",,95311,connector,30,500106,0.0-3.0-1.9,18,2,2/24/23 13:40,197583627f3f28595f5da48ed5410dcb,,"Mozilla/5.0 (Macintosh; Intel Mac OS X 10_15_7) AppleWebKit/605.1.15 (KHTML, like Gecko) Version/16.3 Safari/605.1.15",Macintosh,Safari,16.3,OS X,10_15_7,"[""ENDLESS"",""MILLION""]",0,ever-endless,more,"[""WRONG"",""ENDLESS"",""MILLION"",""GOO"",""RESTAURANT"",""HOP"",""EVER"",""IMPROPER"",""LOAF"",""TELEGRAPH"",""LAYOUT"",""MAIDEN"",""MARAUDER"",""ACCESSORY"",""SCIENTIFIC"",""STEADY"",""CONQUISTADOR"",""RUBRIC"",""STERILE"",""PROSPERITY""]",0.0000847,71,high_a_low_p,
null,<p style='font-size: 48px;'>+</p>,null,fixation,95311,html-keyboard-response,31,501109,0.0-3.0-0.10,18,2,2/24/23 13:40,197583627f3f28595f5da48ed5410dcb,,"Mozilla/5.0 (Macintosh; Intel Mac OS X 10_15_7) AppleWebKit/605.1.15 (KHTML, like Gecko) Version/16.3 Safari/605.1.15",Macintosh,Safari,16.3,OS X,10_15_7,,,,,,,,,
43121,FARMING,"[""MANUFACTURING"",""FODDER""]",,95311,connector,32,544234,0.0-3.0-1.10,18,2,2/24/23 13:40,197583627f3f28595f5da48ed5410dcb,,"Mozilla/5.0 (Macintosh; Intel Mac OS X 10_15_7) AppleWebKit/605.1.15 (KHTML, like Gecko) Version/16.3 Safari/605.1.15",Macintosh,Safari,16.3,OS X,10_15_7,"[""MANUFACTURING"",""FODDER""]",0,cooker-fodder,farming,"[""GOOF"",""SENSES"",""LOVABLE"",""MENTAL"",""SADNESS"",""DRONE"",""MANUFACTURING"",""BURRITO"",""WIDOW"",""INDIGNANT"",""ELEVATION"",""SPINACH"",""SHORE"",""RIVER"",""COOKER"",""SYMMETRY"",""FILTHY"",""DEGREE"",""FODDER"",""UNFRIENDLY""]",0.0000942,1,low_a_low_p,
null,<p style='font-size: 48px;'>+</p>,null,fixation,95311,html-keyboard-response,33,545238,0.0-3.0-0.11,18,2,2/24/23 13:40,197583627f3f28595f5da48ed5410dcb,,"Mozilla/5.0 (Macintosh; Intel Mac OS X 10_15_7) AppleWebKit/605.1.15 (KHTML, like Gecko) Version/16.3 Safari/605.1.15",Macintosh,Safari,16.3,OS X,10_15_7,,,,,,,,,
38144,EASY,"[""NICE"",""BLUEPRINT""]",,95311,connector,34,583387,0.0-3.0-1.11,18,2,2/24/23 13:40,197583627f3f28595f5da48ed5410dcb,,"Mozilla/5.0 (Macintosh; Intel Mac OS X 10_15_7) AppleWebKit/605.1.15 (KHTML, like Gecko) Version/16.3 Safari/605.1.15",Macintosh,Safari,16.3,OS X,10_15_7,"[""NICE"",""BLUEPRINT""]",0,courteous-nice,easy,"[""HORMONE"",""SOOT"",""BLINDS"",""MONOTONY"",""CONSUMER"",""CONUNDRUM"",""FAX"",""AGAINST"",""SLUDGE"",""LEAGUE"",""KIDNAPPER"",""COURTEOUS"",""FRUSTRATION"",""NICE"",""MORTGAGE"",""INTOXICATE"",""BUNS"",""BLUEPRINT"",""SOMETHING"",""GRATITUDE""]",0.0000864,71,high_a_low_p,
null,<p style='font-size: 48px;'>+</p>,null,fixation,95311,html-keyboard-response,35,584391,0.0-3.0-0.12,18,2,2/24/23 13:40,197583627f3f28595f5da48ed5410dcb,,"Mozilla/5.0 (Macintosh; Intel Mac OS X 10_15_7) AppleWebKit/605.1.15 (KHTML, like Gecko) Version/16.3 Safari/605.1.15",Macintosh,Safari,16.3,OS X,10_15_7,,,,,,,,,
28726,ROWDY,"[""SHOUTING"",""CONVICT""]",,95311,connector,36,613120,0.0-3.0-1.12,18,2,2/24/23 13:40,197583627f3f28595f5da48ed5410dcb,,"Mozilla/5.0 (Macintosh; Intel Mac OS X 10_15_7) AppleWebKit/605.1.15 (KHTML, like Gecko) Version/16.3 Safari/605.1.15",Macintosh,Safari,16.3,OS X,10_15_7,"[""SHOUTING"",""CONVICT""]",0,shouting-opinionated,rowdy,"[""SHELTER"",""RESTRICTED"",""FORGETFUL"",""ARTS"",""SOY"",""OPINIONATED"",""SHOUTING"",""RESPECT"",""STALLION"",""TRIPLE"",""LILAC"",""BUTTONS"",""VETERINARIAN"",""SURROUNDINGS"",""GAUDY"",""JUICER"",""DIFFER"",""CONVICT"",""MIGRATE"",""HIDDEN""]",0.000161419,8,low_a_high_p,
null,<p style='font-size: 48px;'>+</p>,null,fixation,95311,html-keyboard-response,37,614123,0.0-3.0-0.13,18,2,2/24/23 13:40,197583627f3f28595f5da48ed5410dcb,,"Mozilla/5.0 (Macintosh; Intel Mac OS X 10_15_7) AppleWebKit/605.1.15 (KHTML, like Gecko) Version/16.3 Safari/605.1.15",Macintosh,Safari,16.3,OS X,10_15_7,,,,,,,,,
40657,GOOD,"[""PERFECTION"",""PRINCIPLE""]",,95311,connector,38,654784,0.0-3.0-1.13,18,2,2/24/23 13:40,197583627f3f28595f5da48ed5410dcb,,"Mozilla/5.0 (Macintosh; Intel Mac OS X 10_15_7) AppleWebKit/605.1.15 (KHTML, like Gecko) Version/16.3 Safari/605.1.15",Macintosh,Safari,16.3,OS X,10_15_7,"[""PERFECTION"",""PRINCIPLE""]",0,flavorful-ingredients,good,"[""PRINCIPLE"",""FLAVORFUL"",""MISSION"",""GYMNASTICS"",""EXPLODE"",""WILDLIFE"",""PERFECTION"",""INCENTIVE"",""COUNTRYSIDE"",""RAG"",""TICKLE"",""SPHINX"",""INGREDIENTS"",""WENT"",""MICROWAVE"",""RESEMBLE"",""THING"",""CIRCUMSTANCE"",""HOMELAND"",""RENTAL""]",0.0000879,131,high_a_low_p,
null,<p style='font-size: 48px;'>+</p>,null,fixation,95311,html-keyboard-response,39,655787,0.0-3.0-0.14,18,2,2/24/23 13:40,197583627f3f28595f5da48ed5410dcb,,"Mozilla/5.0 (Macintosh; Intel Mac OS X 10_15_7) AppleWebKit/605.1.15 (KHTML, like Gecko) Version/16.3 Safari/605.1.15",Macintosh,Safari,16.3,OS X,10_15_7,,,,,,,,,
65154,ECHO,"[""DAWN"",""LIFT""]",,95311,connector,40,720945,0.0-3.0-1.14,18,2,2/24/23 13:40,197583627f3f28595f5da48ed5410dcb,,"Mozilla/5.0 (Macintosh; Intel Mac OS X 10_15_7) AppleWebKit/605.1.15 (KHTML, like Gecko) Version/16.3 Safari/605.1.15",Macintosh,Safari,16.3,OS X,10_15_7,"[""DAWN"",""FAST"",""LIFT""]",0,punch-strike,echo,"[""CERTAINTY"",""FAD"",""DAWN"",""SATURATED"",""DIFFERENCE"",""FAST"",""AIRLINE"",""CALORIES"",""FLAN"",""LIFT"",""PUNCH"",""TENDER"",""FRIDGE"",""STRIKE"",""GLOVE"",""SHALLOW"",""UNKEMPT"",""UPGRADE"",""PROVEN"",""WORTHY""]",0.0000872,2,low_a_low_p,
null,<p style='font-size: 48px;'>+</p>,null,fixation,95311,html-keyboard-response,41,721948,0.0-3.0-0.15,18,2,2/24/23 13:40,197583627f3f28595f5da48ed5410dcb,,"Mozilla/5.0 (Macintosh; Intel Mac OS X 10_15_7) AppleWebKit/605.1.15 (KHTML, like Gecko) Version/16.3 Safari/605.1.15",Macintosh,Safari,16.3,OS X,10_15_7,,,,,,,,,
24560,ISOLATION,"[""PARIAH"",""OSTRACIZE""]",,95311,connector,42,746513,0.0-3.0-1.15,18,2,2/24/23 13:40,197583627f3f28595f5da48ed5410dcb,,"Mozilla/5.0 (Macintosh; Intel Mac OS X 10_15_7) AppleWebKit/605.1.15 (KHTML, like Gecko) Version/16.3 Safari/605.1.15",Macintosh,Safari,16.3,OS X,10_15_7,"[""PARIAH"",""OSTRACIZE""]",1,pariah-ostracize,isolation,"[""ORIGINATE"",""WITHIN"",""LIVESTOCK"",""HARMONY"",""STOCKING"",""BASIC"",""OSTRACIZE"",""PARIAH"",""APPEARANCE"",""LASAGNA"",""SKATE"",""CANTEEN"",""HABITAT"",""COUSIN"",""THRIVE"",""BICEP"",""LEAVE"",""CIPHER"",""COMPLETE"",""CONTEMPORARY""]",0.000141597,6,low_a_high_p,
null,<p style='font-size: 48px;'>+</p>,null,fixation,95311,html-keyboard-response,43,747516,0.0-3.0-0.16,18,2,2/24/23 13:40,197583627f3f28595f5da48ed5410dcb,,"Mozilla/5.0 (Macintosh; Intel Mac OS X 10_15_7) AppleWebKit/605.1.15 (KHTML, like Gecko) Version/16.3 Safari/605.1.15",Macintosh,Safari,16.3,OS X,10_15_7,,,,,,,,,
13854,CHIRP,"[""DOVE"",""PARTRIDGE""]",,95311,connector,44,761374,0.0-3.0-1.16,18,2,2/24/23 13:40,197583627f3f28595f5da48ed5410dcb,,"Mozilla/5.0 (Macintosh; Intel Mac OS X 10_15_7) AppleWebKit/605.1.15 (KHTML, like Gecko) Version/16.3 Safari/605.1.15",Macintosh,Safari,16.3,OS X,10_15_7,"[""DOVE"",""PARTRIDGE""]",1,partridge-dove,chirp,"[""IDENTICAL"",""SAUCEPAN"",""RASCAL"",""COLLOQUIAL"",""CRATER"",""AFTER"",""FLUTTER"",""BRAKE"",""ACQUAINTANCE"",""BIO"",""CUSTODY"",""DANCER"",""NEURON"",""PARTRIDGE"",""BALANCE"",""MUSK"",""SANITY"",""SURFING"",""THIEF"",""DOVE""]",0.00018242,16,high_a_high_p,
null,<p style='font-size: 48px;'>+</p>,null,fixation,95311,html-keyboard-response,45,762377,0.0-3.0-0.17,18,2,2/24/23 13:40,197583627f3f28595f5da48ed5410dcb,,"Mozilla/5.0 (Macintosh; Intel Mac OS X 10_15_7) AppleWebKit/605.1.15 (KHTML, like Gecko) Version/16.3 Safari/605.1.15",Macintosh,Safari,16.3,OS X,10_15_7,,,,,,,,,
17675,BUG,"[""PARASITE"",""INSECT""]",,95311,connector,46,780057,0.0-3.0-1.17,18,2,2/24/23 13:40,197583627f3f28595f5da48ed5410dcb,,"Mozilla/5.0 (Macintosh; Intel Mac OS X 10_15_7) AppleWebKit/605.1.15 (KHTML, like Gecko) Version/16.3 Safari/605.1.15",Macintosh,Safari,16.3,OS X,10_15_7,"[""PARASITE"",""INSECT""]",1,parasite-insect,bug,"[""INSECT"",""SHARE"",""PIERCING"",""MUNCH"",""RANK"",""SCOOTER"",""STEALTHY"",""WORMS"",""IMPROVEMENT"",""COLLABORATE"",""ANTHEM"",""TRAINEE"",""HEIGHTS"",""PARASITE"",""IRRELEVANT"",""MONTHS"",""RATIONAL"",""DETECTIVE"",""ARE"",""PLAN""]",0.000194153,370,high_a_high_p,
null,<p style='font-size: 48px;'>+</p>,null,fixation,95311,html-keyboard-response,47,781062,0.0-3.0-0.18,18,2,2/24/23 13:40,197583627f3f28595f5da48ed5410dcb,,"Mozilla/5.0 (Macintosh; Intel Mac OS X 10_15_7) AppleWebKit/605.1.15 (KHTML, like Gecko) Version/16.3 Safari/605.1.15",Macintosh,Safari,16.3,OS X,10_15_7,,,,,,,,,
35083,WORK,"[""UNDERGROUND"",""BANKS""]",,95311,connector,48,816149,0.0-3.0-1.18,18,2,2/24/23 13:40,197583627f3f28595f5da48ed5410dcb,,"Mozilla/5.0 (Macintosh; Intel Mac OS X 10_15_7) AppleWebKit/605.1.15 (KHTML, like Gecko) Version/16.3 Safari/605.1.15",Macintosh,Safari,16.3,OS X,10_15_7,"[""UNDERGROUND"",""BANKS""]",0,buyer-earner,work,"[""UNDERGROUND"",""INTRICATE"",""DISGUST"",""PITCH"",""BOILED"",""AID"",""SWOLLEN"",""TWEET"",""PRODIGAL"",""TUNNEL"",""PREACHER"",""BANKS"",""CENTURY"",""EARNER"",""TELESCOPE"",""MADLY"",""RELATIVITY"",""ARTICHOKE"",""BUYER"",""KNITTING""]",0.0000934,153,high_a_low_p,
null,<p style='font-size: 48px;'>+</p>,null,fixation,95311,html-keyboard-response,49,817152,0.0-3.0-0.19,18,2,2/24/23 13:40,197583627f3f28595f5da48ed5410dcb,,"Mozilla/5.0 (Macintosh; Intel Mac OS X 10_15_7) AppleWebKit/605.1.15 (KHTML, like Gecko) Version/16.3 Safari/605.1.15",Macintosh,Safari,16.3,OS X,10_15_7,,,,,,,,,
25453,BRIGHT,"[""SKIES"",""UNREALISTIC""]",,95311,connector,50,842607,0.0-3.0-1.19,18,2,2/24/23 13:40,197583627f3f28595f5da48ed5410dcb,,"Mozilla/5.0 (Macintosh; Intel Mac OS X 10_15_7) AppleWebKit/605.1.15 (KHTML, like Gecko) Version/16.3 Safari/605.1.15",Macintosh,Safari,16.3,OS X,10_15_7,"[""SKIES"",""UNREALISTIC""]",0,sentient-awareness,bright,"[""ARROGANCE"",""DENSE"",""SENTIENT"",""VEGGIES"",""SLAY"",""VALIDATE"",""WAGON"",""CONSCIENTIOUS"",""STAFF"",""MANLY"",""UNREALISTIC"",""ERODE"",""VARIANT"",""TIMING"",""SPEED"",""EXCLUSION"",""AWARENESS"",""SKIES"",""INSINUATE"",""EARL""]",0.0000877,45,high_a_low_p,
null,<p style='font-size: 48px;'>+</p>,null,fixation,95311,html-keyboard-response,51,843612,0.0-3.0-0.20,18,2,2/24/23 13:40,197583627f3f28595f5da48ed5410dcb,,"Mozilla/5.0 (Macintosh; Intel Mac OS X 10_15_7) AppleWebKit/605.1.15 (KHTML, like Gecko) Version/16.3 Safari/605.1.15",Macintosh,Safari,16.3,OS X,10_15_7,,,,,,,,,
60447,GRAPEFRUIT,"[""CITRUS"",""TART""]",,95311,connector,52,904064,0.0-3.0-1.20,18,2,2/24/23 13:40,197583627f3f28595f5da48ed5410dcb,,"Mozilla/5.0 (Macintosh; Intel Mac OS X 10_15_7) AppleWebKit/605.1.15 (KHTML, like Gecko) Version/16.3 Safari/605.1.15",Macintosh,Safari,16.3,OS X,10_15_7,"[""CITRUS"",""TART""]",1,citrus-tart,grapefruit,"[""CONFIGURE"",""CLASSIFY"",""TRAVERSE"",""APPROXIMATE"",""TART"",""CITRUS"",""NIGHTINGALE"",""ABSORBENT"",""LYRICS"",""EXCEPTIONAL"",""COMPETITION"",""NAVEL"",""HOMEY"",""TRACKS"",""CONTRACEPTION"",""WOODWORKER"",""CONSISTENT"",""DESK"",""OVERWHELMING"",""ADORATION""]",0.000184311,36,high_a_high_p,
null,<p style='font-size: 48px;'>+</p>,null,fixation,95311,html-keyboard-response,53,905067,0.0-3.0-0.21,18,2,2/24/23 13:40,197583627f3f28595f5da48ed5410dcb,,"Mozilla/5.0 (Macintosh; Intel Mac OS X 10_15_7) AppleWebKit/605.1.15 (KHTML, like Gecko) Version/16.3 Safari/605.1.15",Macintosh,Safari,16.3,OS X,10_15_7,,,,,,,,,
13132,FALCON,"[""WINGS"",""SPARROW""]",,95311,connector,54,918203,0.0-3.0-1.21,18,2,2/24/23 13:40,197583627f3f28595f5da48ed5410dcb,,"Mozilla/5.0 (Macintosh; Intel Mac OS X 10_15_7) AppleWebKit/605.1.15 (KHTML, like Gecko) Version/16.3 Safari/605.1.15",Macintosh,Safari,16.3,OS X,10_15_7,"[""WINGS"",""SPARROW""]",1,wings-sparrow,falcon,"[""CHARGE"",""LONE"",""SPARROW"",""BIRDIE"",""POLICE"",""HEARTBEAT"",""FLEECE"",""EYELINER"",""WINGS"",""EXPLORING"",""REACH"",""ALTERNATE"",""HUH"",""INTEGRAL"",""FORK"",""MAGMA"",""DONUT"",""DAGGER"",""IMPOVERISHED"",""FULFILL""]",0.000190936,2,low_a_high_p,
null,<p style='font-size: 48px;'>+</p>,null,fixation,95311,html-keyboard-response,55,919207,0.0-3.0-0.22,18,2,2/24/23 13:40,197583627f3f28595f5da48ed5410dcb,,"Mozilla/5.0 (Macintosh; Intel Mac OS X 10_15_7) AppleWebKit/605.1.15 (KHTML, like Gecko) Version/16.3 Safari/605.1.15",Macintosh,Safari,16.3,OS X,10_15_7,,,,,,,,,
52682,ALARM,"[""MONTH"",""LEDGER""]",,95311,connector,56,971893,0.0-3.0-1.22,18,2,2/24/23 13:40,197583627f3f28595f5da48ed5410dcb,,"Mozilla/5.0 (Macintosh; Intel Mac OS X 10_15_7) AppleWebKit/605.1.15 (KHTML, like Gecko) Version/16.3 Safari/605.1.15",Macintosh,Safari,16.3,OS X,10_15_7,"[""MONTH"",""LEDGER""]",0,purgatory-heaven,alarm,"[""COMPATIBLE"",""MONTH"",""LEDGER"",""BLONDE"",""CABINET"",""PURGATORY"",""CLAMS"",""INTERN"",""FORETHOUGHT"",""BUM"",""SUPER"",""HEAVEN"",""RELATED"",""BROWN"",""NET"",""PANTS"",""SEDATIVE"",""SLUR"",""BIBLICAL"",""FINGERS""]",0.0000866,2,low_a_low_p,
null,<p style='font-size: 48px;'>+</p>,null,fixation,95311,html-keyboard-response,57,972896,0.0-3.0-0.23,18,2,2/24/23 13:40,197583627f3f28595f5da48ed5410dcb,,"Mozilla/5.0 (Macintosh; Intel Mac OS X 10_15_7) AppleWebKit/605.1.15 (KHTML, like Gecko) Version/16.3 Safari/605.1.15",Macintosh,Safari,16.3,OS X,10_15_7,,,,,,,,,
50674,HAIR,"[""FLOWING"",""ANGELIC""]",,95311,connector,58,1023575,0.0-3.0-1.23,18,2,2/24/23 13:40,197583627f3f28595f5da48ed5410dcb,,"Mozilla/5.0 (Macintosh; Intel Mac OS X 10_15_7) AppleWebKit/605.1.15 (KHTML, like Gecko) Version/16.3 Safari/605.1.15",Macintosh,Safari,16.3,OS X,10_15_7,"[""FLOWING"",""ANGELIC""]",0,upstream-flowing,hair,"[""LUCK"",""RUE"",""APE"",""BOIL"",""UPSTREAM"",""ANGELIC"",""MANGO"",""POSTER"",""FLOWING"",""ALIENS"",""ROTATION"",""PUFF"",""WEEKLY"",""METHODICAL"",""SCAPEGOAT"",""KITTY"",""DIET"",""DETACHMENT"",""EDUCATED"",""CULTIVATE""]",0.0000868,115,high_a_low_p,
null,<p style='font-size: 48px;'>+</p>,null,fixation,95311,html-keyboard-response,59,1024578,0.0-3.0-0.24,18,2,2/24/23 13:40,197583627f3f28595f5da48ed5410dcb,,"Mozilla/5.0 (Macintosh; Intel Mac OS X 10_15_7) AppleWebKit/605.1.15 (KHTML, like Gecko) Version/16.3 Safari/605.1.15",Macintosh,Safari,16.3,OS X,10_15_7,,,,,,,,,
12772,LETHARGY,"[""WEARY"",""TIRING""]",,95311,connector,60,1037355,0.0-3.0-1.24,18,2,2/24/23 13:40,197583627f3f28595f5da48ed5410dcb,,"Mozilla/5.0 (Macintosh; Intel Mac OS X 10_15_7) AppleWebKit/605.1.15 (KHTML, like Gecko) Version/16.3 Safari/605.1.15",Macintosh,Safari,16.3,OS X,10_15_7,"[""WEARY"",""TIRING""]",1,weary-tiring,lethargy,"[""TOWARD"",""VET"",""WEARY"",""TIRING"",""KNAPSACK"",""EXALT"",""POOF"",""PASSAGE"",""CONGRESS"",""SURGEON"",""RETROSPECT"",""WHEREVER"",""BISCUIT"",""SUBORDINATE"",""ASTOUNDING"",""CONFIDENTIAL"",""SELECTIVE"",""INVESTIGATE"",""SNOOZE"",""GUT""]",0.000172654,5,low_a_high_p,
null,<p style='font-size: 48px;'>+</p>,null,fixation,95311,html-keyboard-response,61,1038363,0.0-3.0-0.25,18,2,2/24/23 13:40,197583627f3f28595f5da48ed5410dcb,,"Mozilla/5.0 (Macintosh; Intel Mac OS X 10_15_7) AppleWebKit/605.1.15 (KHTML, like Gecko) Version/16.3 Safari/605.1.15",Macintosh,Safari,16.3,OS X,10_15_7,,,,,,,,,
37729,RANCID,"[""REPUGNANT"",""FOUL""]",,95311,connector,62,1076096,0.0-3.0-1.25,18,2,2/24/23 13:40,197583627f3f28595f5da48ed5410dcb,,"Mozilla/5.0 (Macintosh; Intel Mac OS X 10_15_7) AppleWebKit/605.1.15 (KHTML, like Gecko) Version/16.3 Safari/605.1.15",Macintosh,Safari,16.3,OS X,10_15_7,"[""REPUGNANT"",""FOUL""]",1,foul-repugnant,rancid,"[""KEEN"",""REPUGNANT"",""ADDED"",""BLOOD"",""REVOLVER"",""BAD"",""HIT"",""FOUL"",""NEPHEW"",""RELATIONSHIP"",""RIFT"",""PISTON"",""DORMANT"",""SISTER"",""LEAFY"",""ELEVATE"",""EVERGREEN"",""BEARING"",""OLDER"",""SAMENESS""]",0.000161767,4,low_a_high_p,
null,<p style='font-size: 48px;'>+</p>,null,fixation,95311,html-keyboard-response,63,1077099,0.0-3.0-0.26,18,2,2/24/23 13:40,197583627f3f28595f5da48ed5410dcb,,"Mozilla/5.0 (Macintosh; Intel Mac OS X 10_15_7) AppleWebKit/605.1.15 (KHTML, like Gecko) Version/16.3 Safari/605.1.15",Macintosh,Safari,16.3,OS X,10_15_7,,,,,,,,,
11326,OUTDO,"[""SURPASS"",""OVERCOME""]",,95311,connector,64,1088430,0.0-3.0-1.26,18,2,2/24/23 13:40,197583627f3f28595f5da48ed5410dcb,,"Mozilla/5.0 (Macintosh; Intel Mac OS X 10_15_7) AppleWebKit/605.1.15 (KHTML, like Gecko) Version/16.3 Safari/605.1.15",Macintosh,Safari,16.3,OS X,10_15_7,"[""SURPASS"",""OVERCOME""]",1,overcome-surpass,outdo,"[""EIGHT"",""ANEMIA"",""ELECTRICAL"",""SURPASS"",""DISPUTE"",""RECEPTION"",""FEARFUL"",""FRY"",""PAGEANT"",""PASSIVE"",""LIGHTING"",""INTEGRITY"",""DOLLAR"",""SHRUBS"",""LOSING"",""TRAGIC"",""OVERCOME"",""SPIKE"",""COOPERATIVE"",""DREAMY""]",0.000170257,17,high_a_high_p,
null,<p style='font-size: 48px;'>+</p>,null,fixation,95311,html-keyboard-response,65,1089435,0.0-3.0-0.27,18,2,2/24/23 13:40,197583627f3f28595f5da48ed5410dcb,,"Mozilla/5.0 (Macintosh; Intel Mac OS X 10_15_7) AppleWebKit/605.1.15 (KHTML, like Gecko) Version/16.3 Safari/605.1.15",Macintosh,Safari,16.3,OS X,10_15_7,,,,,,,,,
11070,BREAD,"[""GLUTEN"",""FLOUR""]",,95311,connector,66,1100509,0.0-3.0-1.27,18,2,2/24/23 13:40,197583627f3f28595f5da48ed5410dcb,,"Mozilla/5.0 (Macintosh; Intel Mac OS X 10_15_7) AppleWebKit/605.1.15 (KHTML, like Gecko) Version/16.3 Safari/605.1.15",Macintosh,Safari,16.3,OS X,10_15_7,"[""GLUTEN"",""MOLDY"",""FLOUR""]",1,gluten-flour,bread,"[""CHEERLEADER"",""ACHING"",""CROSSROAD"",""SURROUNDED"",""MAJESTY"",""DOLLARS"",""NEEDLE"",""CUSTOMER"",""MOLDY"",""UNDESIRABLE"",""CURTAIN"",""PROGRAMMING"",""GLUTEN"",""EXCITE"",""RUFFLE"",""CREST"",""MOLECULE"",""RESTART"",""FEROCIOUS"",""FLOUR""]",0.000187324,343,high_a_high_p,
null,<p style='font-size: 48px;'>+</p>,null,fixation,95311,html-keyboard-response,67,1101514,0.0-3.0-0.28,18,2,2/24/23 13:40,197583627f3f28595f5da48ed5410dcb,,"Mozilla/5.0 (Macintosh; Intel Mac OS X 10_15_7) AppleWebKit/605.1.15 (KHTML, like Gecko) Version/16.3 Safari/605.1.15",Macintosh,Safari,16.3,OS X,10_15_7,,,,,,,,,
15142,CHEERFUL,"[""PLEASURABLE"",""GODDESS""]",,95311,connector,68,1116660,0.0-3.0-1.28,18,2,2/24/23 13:40,197583627f3f28595f5da48ed5410dcb,,"Mozilla/5.0 (Macintosh; Intel Mac OS X 10_15_7) AppleWebKit/605.1.15 (KHTML, like Gecko) Version/16.3 Safari/605.1.15",Macintosh,Safari,16.3,OS X,10_15_7,"[""PLEASURABLE"",""GODDESS""]",0,perky-smiles,cheerful,"[""DID"",""VISA"",""DAZE"",""COMPLETION"",""CURSE"",""PLEASURABLE"",""SAGE"",""GODDESS"",""MEDIAN"",""TEN"",""DRAMATIC"",""SMILES"",""PERKY"",""CONSOLE"",""AROUND"",""CHALKBOARD"",""AUTHORITY"",""FITNESS"",""MONITOR"",""NIGHT""]",0.000193964,55,high_a_high_p,
null,<p style='font-size: 48px;'>+</p>,null,fixation,95311,html-keyboard-response,69,1117664,0.0-3.0-0.29,18,2,2/24/23 13:40,197583627f3f28595f5da48ed5410dcb,,"Mozilla/5.0 (Macintosh; Intel Mac OS X 10_15_7) AppleWebKit/605.1.15 (KHTML, like Gecko) Version/16.3 Safari/605.1.15",Macintosh,Safari,16.3,OS X,10_15_7,,,,,,,,,
12342,CHUCKLE,"[""ELATED"",""VIVACIOUS""]",,95311,connector,70,1130011,0.0-3.0-1.29,18,2,2/24/23 13:40,197583627f3f28595f5da48ed5410dcb,,"Mozilla/5.0 (Macintosh; Intel Mac OS X 10_15_7) AppleWebKit/605.1.15 (KHTML, like Gecko) Version/16.3 Safari/605.1.15",Macintosh,Safari,16.3,OS X,10_15_7,"[""ELATED"",""VIVACIOUS""]",1,elated-vivacious,chuckle,"[""SURROUNDING"",""VIVACIOUS"",""ELATED"",""NEED"",""PANEL"",""SEWER"",""GLITCH"",""OSMOSIS"",""DOTS"",""COMFORTER"",""EXOSKELETON"",""SUCCESSFUL"",""VIOLATION"",""DECK"",""LORD"",""WORLDWIDE"",""CONTAMINATE"",""FORTY"",""ADULTERY"",""KNEW""]",0.0000954,2,low_a_low_p,
null,<p style='font-size: 48px;'>+</p>,null,fixation,95311,html-keyboard-response,71,1131016,0.0-3.0-0.30,18,2,2/24/23 13:40,197583627f3f28595f5da48ed5410dcb,,"Mozilla/5.0 (Macintosh; Intel Mac OS X 10_15_7) AppleWebKit/605.1.15 (KHTML, like Gecko) Version/16.3 Safari/605.1.15",Macintosh,Safari,16.3,OS X,10_15_7,,,,,,,,,
59549,BRONCO,"[""EXTERIOR"",""BEATEN""]",,95311,connector,72,1190572,0.0-3.0-1.30,18,2,2/24/23 13:40,197583627f3f28595f5da48ed5410dcb,,"Mozilla/5.0 (Macintosh; Intel Mac OS X 10_15_7) AppleWebKit/605.1.15 (KHTML, like Gecko) Version/16.3 Safari/605.1.15",Macintosh,Safari,16.3,OS X,10_15_7,"[""EXTERIOR"",""BEATEN""]",0,lasso-mare,bronco,"[""DEVICE"",""EXTERIOR"",""LASSO"",""SUPPORTER"",""HAPPENSTANCE"",""LATTER"",""DICTATE"",""SPATULA"",""DEPENDENT"",""WORTHLESS"",""SYNDROME"",""DUO"",""RETIRE"",""BEATEN"",""INTEGER"",""SHOTS"",""MARE"",""OXEN"",""GROOVE"",""COLLEAGUE""]",0.000184957,1,low_a_high_p,
null,<p style='font-size: 48px;'>+</p>,null,fixation,95311,html-keyboard-response,73,1191578,0.0-3.0-0.31,18,2,2/24/23 13:40,197583627f3f28595f5da48ed5410dcb,,"Mozilla/5.0 (Macintosh; Intel Mac OS X 10_15_7) AppleWebKit/605.1.15 (KHTML, like Gecko) Version/16.3 Safari/605.1.15",Macintosh,Safari,16.3,OS X,10_15_7,,,,,,,,,
13927,TROUSERS,"[""BAGGY"",""SUSPENDERS""]",,95311,connector,74,1205510,0.0-3.0-1.31,18,2,2/24/23 13:40,197583627f3f28595f5da48ed5410dcb,,"Mozilla/5.0 (Macintosh; Intel Mac OS X 10_15_7) AppleWebKit/605.1.15 (KHTML, like Gecko) Version/16.3 Safari/605.1.15",Macintosh,Safari,16.3,OS X,10_15_7,"[""BAGGY"",""SUSPENDERS""]",1,baggy-suspenders,trousers,"[""SNEAKING"",""ROBIN"",""MONK"",""SUSPENDERS"",""BAGGY"",""SCYTHE"",""WALKWAY"",""MINGLE"",""CEREAL"",""TEASE"",""PRESCHOOL"",""AFFIRMATIVE"",""DISCUS"",""WEIGHTLESS"",""ANTIBIOTIC"",""SKEPTIC"",""ATTIRE"",""BUMPS"",""COG"",""INTELLECTUAL""]",0.000205977,221,high_a_high_p,
null,<p style='font-size: 48px;'>+</p>,null,fixation,95311,html-keyboard-response,75,1206517,0.0-3.0-0.32,18,2,2/24/23 13:40,197583627f3f28595f5da48ed5410dcb,,"Mozilla/5.0 (Macintosh; Intel Mac OS X 10_15_7) AppleWebKit/605.1.15 (KHTML, like Gecko) Version/16.3 Safari/605.1.15",Macintosh,Safari,16.3,OS X,10_15_7,,,,,,,,,
29261,HAPPY,"[""YOUTHFUL"",""WIFE""]",,95311,connector,76,1235782,0.0-3.0-1.32,18,2,2/24/23 13:40,197583627f3f28595f5da48ed5410dcb,,"Mozilla/5.0 (Macintosh; Intel Mac OS X 10_15_7) AppleWebKit/605.1.15 (KHTML, like Gecko) Version/16.3 Safari/605.1.15",Macintosh,Safari,16.3,OS X,10_15_7,"[""YOUTHFUL"",""WIFE""]",0,teenager-youthful,happy,"[""YOUTHFUL"",""SHINGLES"",""NUDITY"",""METRIC"",""ROYALTY"",""GENERALLY"",""WISPY"",""TOT"",""BELONGING"",""TREBLE"",""FRUSTRATED"",""IMAGINE"",""RIDING"",""DEMOLISH"",""TEENAGER"",""DECLARE"",""CHIVALROUS"",""INVISIBLE"",""PENNY"",""WIFE""]",0.0000866,103,high_a_low_p,
null,<p style='font-size: 48px;'>+</p>,null,fixation,95311,html-keyboard-response,77,1236787,0.0-3.0-0.33,18,2,2/24/23 13:40,197583627f3f28595f5da48ed5410dcb,,"Mozilla/5.0 (Macintosh; Intel Mac OS X 10_15_7) AppleWebKit/605.1.15 (KHTML, like Gecko) Version/16.3 Safari/605.1.15",Macintosh,Safari,16.3,OS X,10_15_7,,,,,,,,,
25632,STIPEND,"[""PAID"",""ASSET""]",,95311,connector,78,1262423,0.0-3.0-1.33,18,2,2/24/23 13:40,197583627f3f28595f5da48ed5410dcb,,"Mozilla/5.0 (Macintosh; Intel Mac OS X 10_15_7) AppleWebKit/605.1.15 (KHTML, like Gecko) Version/16.3 Safari/605.1.15",Macintosh,Safari,16.3,OS X,10_15_7,"[""PAID"",""ASSET""]",0,paid-gratuity,stipend,"[""VIBRATE"",""PAINTING"",""TRIANGLE"",""BEARS"",""SLINGSHOT"",""HIKING"",""RELATIVE"",""DECEPTION"",""ANTENNA"",""PAID"",""GRATUITY"",""OBSERVANT"",""SUPERB"",""HIPSTER"",""SOW"",""PORTRAY"",""APPREHENSIVE"",""EARLY"",""FLATTERING"",""ASSET""]",0.00018686,6,low_a_high_p,
null,<p style='font-size: 48px;'>+</p>,null,fixation,95311,html-keyboard-response,79,1263427,0.0-3.0-0.34,18,2,2/24/23 13:40,197583627f3f28595f5da48ed5410dcb,,"Mozilla/5.0 (Macintosh; Intel Mac OS X 10_15_7) AppleWebKit/605.1.15 (KHTML, like Gecko) Version/16.3 Safari/605.1.15",Macintosh,Safari,16.3,OS X,10_15_7,,,,,,,,,
47128,SENATOR,"[""DIPLOMATIC"",""GOVERNMENT""]",,95311,connector,80,1310560,0.0-3.0-1.34,18,2,2/24/23 13:40,197583627f3f28595f5da48ed5410dcb,,"Mozilla/5.0 (Macintosh; Intel Mac OS X 10_15_7) AppleWebKit/605.1.15 (KHTML, like Gecko) Version/16.3 Safari/605.1.15",Macintosh,Safari,16.3,OS X,10_15_7,"[""DIPLOMATIC"",""GOVERNMENT""]",0,politics-government,senator,"[""DIPLOMATIC"",""BOOKS"",""DIVERSITY"",""CLOSENESS"",""PRESSING"",""NICKNAME"",""DISTINCTION"",""CAGE"",""UNDEAD"",""BUTLER"",""AXON"",""DEFEAT"",""PEARLS"",""SKIT"",""PILOT"",""GOVERNMENT"",""POLITICS"",""SLEEPING"",""FLANNEL"",""MUCH""]",0.00019163,6,low_a_high_p,
null,<p style='font-size: 48px;'>+</p>,null,fixation,95311,html-keyboard-response,81,1311565,0.0-3.0-0.35,18,2,2/24/23 13:40,197583627f3f28595f5da48ed5410dcb,,"Mozilla/5.0 (Macintosh; Intel Mac OS X 10_15_7) AppleWebKit/605.1.15 (KHTML, like Gecko) Version/16.3 Safari/605.1.15",Macintosh,Safari,16.3,OS X,10_15_7,,,,,,,,,
23158,UGH,"[""IMPAIRMENT"",""UNSUCCESSFUL""]",,95311,connector,82,1334729,0.0-3.0-1.35,18,2,2/24/23 13:40,197583627f3f28595f5da48ed5410dcb,,"Mozilla/5.0 (Macintosh; Intel Mac OS X 10_15_7) AppleWebKit/605.1.15 (KHTML, like Gecko) Version/16.3 Safari/605.1.15",Macintosh,Safari,16.3,OS X,10_15_7,"[""IMPAIRMENT"",""UNSUCCESSFUL""]",0,platter-inedible,ugh,"[""PLATTER"",""CANDY"",""WIND"",""UNSUCCESSFUL"",""LEMONY"",""POP"",""EARRING"",""MOVIES"",""PEEK"",""SOLDER"",""LIT"",""INEDIBLE"",""IMPAIRMENT"",""ACTIONS"",""EROSION"",""CLAIM"",""RAVENOUS"",""TEENS"",""RULING"",""LISP""]",0.0000931,3,low_a_low_p,
null,<p style='font-size: 48px;'>+</p>,null,fixation,95311,html-keyboard-response,83,1335734,0.0-3.0-0.36,18,2,2/24/23 13:40,197583627f3f28595f5da48ed5410dcb,,"Mozilla/5.0 (Macintosh; Intel Mac OS X 10_15_7) AppleWebKit/605.1.15 (KHTML, like Gecko) Version/16.3 Safari/605.1.15",Macintosh,Safari,16.3,OS X,10_15_7,,,,,,,,,
51547,DRINK,"[""USURPER"",""CONSUMPTION""]",,95311,connector,84,1387285,0.0-3.0-1.36,18,2,2/24/23 13:40,197583627f3f28595f5da48ed5410dcb,,"Mozilla/5.0 (Macintosh; Intel Mac OS X 10_15_7) AppleWebKit/605.1.15 (KHTML, like Gecko) Version/16.3 Safari/605.1.15",Macintosh,Safari,16.3,OS X,10_15_7,"[""USURPER"",""CONSUMPTION""]",0,starve-consumption,drink,"[""GHOSTLY"",""SCARF"",""ABS"",""ACTIVITY"",""WEEP"",""APES"",""QUILT"",""STARVE"",""MOAT"",""COLLECTION"",""TRUCKS"",""GOLFER"",""HOSPITAL"",""COMIC"",""USURPER"",""RECIPE"",""OBLIVIOUS"",""MISBEHAVE"",""CONSUMPTION"",""COMPLICATED""]",0.0000878,98,high_a_low_p,
null,<p style='font-size: 48px;'>+</p>,null,fixation,95311,html-keyboard-response,85,1388290,0.0-3.0-0.37,18,2,2/24/23 13:40,197583627f3f28595f5da48ed5410dcb,,"Mozilla/5.0 (Macintosh; Intel Mac OS X 10_15_7) AppleWebKit/605.1.15 (KHTML, like Gecko) Version/16.3 Safari/605.1.15",Macintosh,Safari,16.3,OS X,10_15_7,,,,,,,,,
10737,NEWBORN,"[""DIAPERS"",""CARRYING""]",,95311,connector,86,1399031,0.0-3.0-1.37,18,2,2/24/23 13:40,197583627f3f28595f5da48ed5410dcb,,"Mozilla/5.0 (Macintosh; Intel Mac OS X 10_15_7) AppleWebKit/605.1.15 (KHTML, like Gecko) Version/16.3 Safari/605.1.15",Macintosh,Safari,16.3,OS X,10_15_7,"[""DIAPERS"",""CARRYING""]",0,pram-diapers,newborn,"[""ROUGE"",""ELEGANCE"",""CARRYING"",""TEXTURE"",""CANARY"",""STEERING"",""DIAPERS"",""LOUSE"",""LENSES"",""PRAM"",""WISHFUL"",""SLUSHY"",""WIRELESS"",""ASPECT"",""SILL"",""ORDERED"",""ANYWAY"",""GULP"",""CENTERED"",""DISTURB""]",0.000201725,19,high_a_high_p,
null,<p style='font-size: 48px;'>+</p>,null,fixation,95311,html-keyboard-response,87,1400035,0.0-3.0-0.38,18,2,2/24/23 13:40,197583627f3f28595f5da48ed5410dcb,,"Mozilla/5.0 (Macintosh; Intel Mac OS X 10_15_7) AppleWebKit/605.1.15 (KHTML, like Gecko) Version/16.3 Safari/605.1.15",Macintosh,Safari,16.3,OS X,10_15_7,,,,,,,,,
14444,FINANCES,"[""CHECKBOOK"",""RICHES""]",,95311,connector,88,1414484,0.0-3.0-1.38,18,2,2/24/23 13:40,197583627f3f28595f5da48ed5410dcb,,"Mozilla/5.0 (Macintosh; Intel Mac OS X 10_15_7) AppleWebKit/605.1.15 (KHTML, like Gecko) Version/16.3 Safari/605.1.15",Macintosh,Safari,16.3,OS X,10_15_7,"[""CHECKBOOK"",""COMPLEX"",""RICHES""]",0,spent-checkbook,finances,"[""LANTERN"",""CHECKBOOK"",""COMPLEX"",""HOLSTER"",""VICTORY"",""BUSTLE"",""SABER"",""RICHES"",""SPENT"",""ASTRONAUT"",""THEIR"",""CELESTIAL"",""RUBY"",""STEADFAST"",""TERRIFIED"",""ASSORTMENT"",""WICKER"",""THYROID"",""GAZELLE"",""VOCABULARY""]",0.00018627,6,low_a_high_p,
null,<p style='font-size: 48px;'>+</p>,null,fixation,95311,html-keyboard-response,89,1415493,0.0-3.0-0.39,18,2,2/24/23 13:40,197583627f3f28595f5da48ed5410dcb,,"Mozilla/5.0 (Macintosh; Intel Mac OS X 10_15_7) AppleWebKit/605.1.15 (KHTML, like Gecko) Version/16.3 Safari/605.1.15",Macintosh,Safari,16.3,OS X,10_15_7,,,,,,,,,
38747,CONDUCT,"[""BROADCAST"",""PHYSIOLOGY""]",,95311,connector,90,1454245,0.0-3.0-1.39,18,2,2/24/23 13:40,197583627f3f28595f5da48ed5410dcb,,"Mozilla/5.0 (Macintosh; Intel Mac OS X 10_15_7) AppleWebKit/605.1.15 (KHTML, like Gecko) Version/16.3 Safari/605.1.15",Macintosh,Safari,16.3,OS X,10_15_7,"[""BROADCAST"",""PHYSIOLOGY""]",0,broadcast-television,conduct,"[""HELLFIRE"",""HANGOVER"",""BROADCAST"",""TELEVISION"",""LIPS"",""MOVIE"",""BAKE"",""REPRESSION"",""ODD"",""HEALTHY"",""INTENSE"",""SIN"",""PHYSIOLOGY"",""AHOY"",""SLIM"",""SQUINT"",""JAVELIN"",""PRIOR"",""FORCES"",""RAILWAY""]",0.0000875,2,low_a_low_p,
null,<p style='font-size: 48px;'>+</p>,null,fixation,95311,html-keyboard-response,91,1455249,0.0-3.0-0.40,18,2,2/24/23 13:40,197583627f3f28595f5da48ed5410dcb,,"Mozilla/5.0 (Macintosh; Intel Mac OS X 10_15_7) AppleWebKit/605.1.15 (KHTML, like Gecko) Version/16.3 Safari/605.1.15",Macintosh,Safari,16.3,OS X,10_15_7,,,,,,,,,
33834,PRESENT,"[""DISTINCT"",""ENJOYMENT""]",,95311,connector,92,1489088,0.0-3.0-1.40,18,2,2/24/23 13:40,197583627f3f28595f5da48ed5410dcb,,"Mozilla/5.0 (Macintosh; Intel Mac OS X 10_15_7) AppleWebKit/605.1.15 (KHTML, like Gecko) Version/16.3 Safari/605.1.15",Macintosh,Safari,16.3,OS X,10_15_7,"[""PESTO"",""DISTINCT"",""ENJOYMENT"",""UNAVOIDABLE""]",0,grant-donation,present,"[""ASSURED"",""GRANT"",""JAGUAR"",""PESTO"",""UNAVOIDABLE"",""CONTAIN"",""BANANA"",""DONATION"",""ENJOYMENT"",""SOLID"",""CHOOSE"",""EGGS"",""DISTINCT"",""ROUGHLY"",""MELTING"",""GENEALOGY"",""CLOSURE"",""PAYCHECK"",""LIMIT"",""LEGISLATURE""]",0.0000948,82,high_a_low_p,
null,<p style='font-size: 48px;'>+</p>,null,fixation,95311,html-keyboard-response,93,1490093,0.0-3.0-0.41,18,2,2/24/23 13:40,197583627f3f28595f5da48ed5410dcb,,"Mozilla/5.0 (Macintosh; Intel Mac OS X 10_15_7) AppleWebKit/605.1.15 (KHTML, like Gecko) Version/16.3 Safari/605.1.15",Macintosh,Safari,16.3,OS X,10_15_7,,,,,,,,,
6479,COMPUTER,"[""BYTE"",""GRAPHICS""]",,95311,connector,94,1496577,0.0-3.0-1.41,18,2,2/24/23 13:40,197583627f3f28595f5da48ed5410dcb,,"Mozilla/5.0 (Macintosh; Intel Mac OS X 10_15_7) AppleWebKit/605.1.15 (KHTML, like Gecko) Version/16.3 Safari/605.1.15",Macintosh,Safari,16.3,OS X,10_15_7,"[""BYTE"",""GRAPHICS""]",1,byte-graphics,computer,"[""GRAPHICS"",""COMMUTE"",""BYTE"",""MAGGOT"",""THIRD"",""UPSTANDING"",""CLAUSE"",""SPICE"",""CHATTY"",""BULLET"",""UNSTABLE"",""STABLE"",""SKEPTICAL"",""EARS"",""OFFLINE"",""FIDDLER"",""CHRONIC"",""DESTROYED"",""FAR"",""ENTRY""]",0.000170567,380,high_a_high_p,
null,<p style='font-size: 48px;'>+</p>,null,fixation,95311,html-keyboard-response,95,1497581,0.0-3.0-0.42,18,2,2/24/23 13:40,197583627f3f28595f5da48ed5410dcb,,"Mozilla/5.0 (Macintosh; Intel Mac OS X 10_15_7) AppleWebKit/605.1.15 (KHTML, like Gecko) Version/16.3 Safari/605.1.15",Macintosh,Safari,16.3,OS X,10_15_7,,,,,,,,,
83579,STANDARDS,"[""FACULTY"",""SEMESTER""]",,95311,connector,96,1581166,0.0-3.0-1.42,18,2,2/24/23 13:40,197583627f3f28595f5da48ed5410dcb,,"Mozilla/5.0 (Macintosh; Intel Mac OS X 10_15_7) AppleWebKit/605.1.15 (KHTML, like Gecko) Version/16.3 Safari/605.1.15",Macintosh,Safari,16.3,OS X,10_15_7,"[""FACULTY"",""LEARNER"",""SEMESTER""]",1,semester-faculty,standards,"[""SEMESTER"",""FACULTY"",""CHILDLESS"",""ABORIGINE"",""PRANKSTER"",""GRAB"",""TOAD"",""ANEW"",""FIX"",""COMET"",""MAGNIFY"",""CYNIC"",""SWANKY"",""PEBBLE"",""LEARNER"",""IMPRISON"",""ONCE"",""YOU"",""STANDARD"",""EARNINGS""]",0.0000951,3,low_a_low_p,
null,<p style='font-size: 48px;'>+</p>,null,fixation,95311,html-keyboard-response,97,1582173,0.0-3.0-0.43,18,2,2/24/23 13:40,197583627f3f28595f5da48ed5410dcb,,"Mozilla/5.0 (Macintosh; Intel Mac OS X 10_15_7) AppleWebKit/605.1.15 (KHTML, like Gecko) Version/16.3 Safari/605.1.15",Macintosh,Safari,16.3,OS X,10_15_7,,,,,,,,,
8369,GARBAGE,"[""TRASHED"",""RACCOON""]",,95311,connector,98,1590549,0.0-3.0-1.43,18,2,2/24/23 13:40,197583627f3f28595f5da48ed5410dcb,,"Mozilla/5.0 (Macintosh; Intel Mac OS X 10_15_7) AppleWebKit/605.1.15 (KHTML, like Gecko) Version/16.3 Safari/605.1.15",Macintosh,Safari,16.3,OS X,10_15_7,"[""TRASHED"",""RACCOON""]",0,raccoon-creature,garbage,"[""ONSET"",""OUTGOING"",""FORCED"",""CONFIDANT"",""CUB"",""HIMSELF"",""ROTATE"",""WICKED"",""OUTLANDISH"",""CREATURE"",""BABBLING"",""REGAL"",""TRASHED"",""RACCOON"",""INVASION"",""RAINBOW"",""CONNECT"",""INSTRUMENT"",""DOPEY"",""STUDIOS""]",0.0000842,56,high_a_low_p,
null,<p style='font-size: 48px;'>+</p>,null,fixation,95311,html-keyboard-response,99,1591553,0.0-3.0-0.44,18,2,2/24/23 13:40,197583627f3f28595f5da48ed5410dcb,,"Mozilla/5.0 (Macintosh; Intel Mac OS X 10_15_7) AppleWebKit/605.1.15 (KHTML, like Gecko) Version/16.3 Safari/605.1.15",Macintosh,Safari,16.3,OS X,10_15_7,,,,,,,,,
29351,PRAYING,"[""BLESS"",""PROPHET""]",,95311,connector,100,1620911,0.0-3.0-1.44,18,2,2/24/23 13:40,197583627f3f28595f5da48ed5410dcb,,"Mozilla/5.0 (Macintosh; Intel Mac OS X 10_15_7) AppleWebKit/605.1.15 (KHTML, like Gecko) Version/16.3 Safari/605.1.15",Macintosh,Safari,16.3,OS X,10_15_7,"[""BLESS"",""PROPHET""]",0,piety-bless,praying,"[""BLESS"",""BANJO"",""BOND"",""HAUNTED"",""OREGANO"",""SMELL"",""TIDE"",""LIEUTENANT"",""CLAY"",""APEX"",""TEMPERATURE"",""FUZZY"",""RELIABLE"",""SUGGEST"",""REBELLION"",""FOOT"",""MARK"",""PROPHET"",""SPOT"",""PIETY""]",0.000193008,1,low_a_high_p,
null,<p style='font-size: 48px;'>+</p>,null,fixation,95311,html-keyboard-response,101,1621915,0.0-3.0-0.45,18,2,2/24/23 13:40,197583627f3f28595f5da48ed5410dcb,,"Mozilla/5.0 (Macintosh; Intel Mac OS X 10_15_7) AppleWebKit/605.1.15 (KHTML, like Gecko) Version/16.3 Safari/605.1.15",Macintosh,Safari,16.3,OS X,10_15_7,,,,,,,,,
33094,SACRED,"[""NATIONAL"",""BRIMSTONE""]",,95311,connector,102,1655016,0.0-3.0-1.45,18,2,2/24/23 13:40,197583627f3f28595f5da48ed5410dcb,,"Mozilla/5.0 (Macintosh; Intel Mac OS X 10_15_7) AppleWebKit/605.1.15 (KHTML, like Gecko) Version/16.3 Safari/605.1.15",Macintosh,Safari,16.3,OS X,10_15_7,"[""INSUFFICIENT"",""NATIONAL"",""BRIMSTONE""]",0,cow-dairy,sacred,"[""SAMPLE"",""DREAD"",""DAIRY"",""BUNCH"",""INSUFFICIENT"",""HARPOON"",""SPYING"",""SAFARI"",""DEPRESSION"",""FIELD"",""MEANDER"",""GEEK"",""BRIMSTONE"",""BIKINI"",""COW"",""DEPARTMENT"",""CRUSHED"",""NATIONAL"",""MANNERISM"",""HEATING""]",0.0000901,2,low_a_low_p,
null,<p style='font-size: 48px;'>+</p>,null,fixation,95311,html-keyboard-response,103,1656020,0.0-3.0-0.46,18,2,2/24/23 13:40,197583627f3f28595f5da48ed5410dcb,,"Mozilla/5.0 (Macintosh; Intel Mac OS X 10_15_7) AppleWebKit/605.1.15 (KHTML, like Gecko) Version/16.3 Safari/605.1.15",Macintosh,Safari,16.3,OS X,10_15_7,,,,,,,,,
22665,DRIZZLE,"[""BATHING"",""QUENCH""]",,95311,connector,104,1678691,0.0-3.0-1.46,18,2,2/24/23 13:40,197583627f3f28595f5da48ed5410dcb,,"Mozilla/5.0 (Macintosh; Intel Mac OS X 10_15_7) AppleWebKit/605.1.15 (KHTML, like Gecko) Version/16.3 Safari/605.1.15",Macintosh,Safari,16.3,OS X,10_15_7,"[""BATHING"",""QUENCH""]",0,hose-bathing,drizzle,"[""ENCLOSURE"",""VIPER"",""BATHING"",""EMAIL"",""REQUEST"",""CERTAIN"",""VEGAN"",""GLORIOUS"",""STOCK"",""INBETWEEN"",""DOWNHILL"",""OUTLAW"",""SCRAMBLE"",""QUENCH"",""BRAVERY"",""CHIC"",""APPREHEND"",""TERRIBLE"",""HOSE"",""GLOWING""]",0.000093,3,low_a_low_p,
null,<p style='font-size: 48px;'>+</p>,null,fixation,95311,html-keyboard-response,105,1679696,0.0-3.0-0.47,18,2,2/24/23 13:40,197583627f3f28595f5da48ed5410dcb,,"Mozilla/5.0 (Macintosh; Intel Mac OS X 10_15_7) AppleWebKit/605.1.15 (KHTML, like Gecko) Version/16.3 Safari/605.1.15",Macintosh,Safari,16.3,OS X,10_15_7,,,,,,,,,
49521,CLASSICS,"[""STEM"",""GRANDPARENT""]",,95311,connector,106,1729223,0.0-3.0-1.47,18,2,2/24/23 13:40,197583627f3f28595f5da48ed5410dcb,,"Mozilla/5.0 (Macintosh; Intel Mac OS X 10_15_7) AppleWebKit/605.1.15 (KHTML, like Gecko) Version/16.3 Safari/605.1.15",Macintosh,Safari,16.3,OS X,10_15_7,"[""STEM"",""GRANDPARENT""]",0,grandparent-maturity,classics,"[""REGARD"",""RUB"",""DELIVER"",""GRANDPARENT"",""CHEWING"",""STY"",""ADULTS"",""AGITATED"",""CEREMONY"",""FELINE"",""SATISFACTION"",""POSSESSIVE"",""MORBID"",""ENVY"",""STEM"",""ZOO"",""WORLD"",""SPLENDID"",""MATURITY"",""GENOCIDE""]",0.0000934,1,low_a_low_p,
null,<p style='font-size: 48px;'>+</p>,null,fixation,95311,html-keyboard-response,107,1730228,0.0-3.0-0.48,18,2,2/24/23 13:40,197583627f3f28595f5da48ed5410dcb,,"Mozilla/5.0 (Macintosh; Intel Mac OS X 10_15_7) AppleWebKit/605.1.15 (KHTML, like Gecko) Version/16.3 Safari/605.1.15",Macintosh,Safari,16.3,OS X,10_15_7,,,,,,,,,
8790,ILLUMINATION,"[""PRISM"",""AURA""]",,95311,connector,108,1739025,0.0-3.0-1.48,18,2,2/24/23 13:40,197583627f3f28595f5da48ed5410dcb,,"Mozilla/5.0 (Macintosh; Intel Mac OS X 10_15_7) AppleWebKit/605.1.15 (KHTML, like Gecko) Version/16.3 Safari/605.1.15",Macintosh,Safari,16.3,OS X,10_15_7,"[""PRISM"",""AURA""]",1,prism-aura,illumination,"[""WASHCLOTH"",""PRISM"",""RODEO"",""HOOT"",""REGION"",""APACHE"",""DOWNSTREAM"",""SUSPENSE"",""AURA"",""EXCEED"",""PREGNANCY"",""NOG"",""COMPROMISE"",""GLISTEN"",""EXTINCTION"",""EXPIRE"",""PHENOMENON"",""SUCCEED"",""UNTRUE"",""DARLING""]",0.000169144,10,high_a_high_p,
null,<p style='font-size: 48px;'>+</p>,null,fixation,95311,html-keyboard-response,109,1740028,0.0-3.0-0.49,18,2,2/24/23 13:40,197583627f3f28595f5da48ed5410dcb,,"Mozilla/5.0 (Macintosh; Intel Mac OS X 10_15_7) AppleWebKit/605.1.15 (KHTML, like Gecko) Version/16.3 Safari/605.1.15",Macintosh,Safari,16.3,OS X,10_15_7,,,,,,,,,
22468,HURDLE,"[""STRATEGY"",""ENVISION""]",,95311,connector,110,1762501,0.0-3.0-1.49,18,2,2/24/23 13:40,197583627f3f28595f5da48ed5410dcb,,"Mozilla/5.0 (Macintosh; Intel Mac OS X 10_15_7) AppleWebKit/605.1.15 (KHTML, like Gecko) Version/16.3 Safari/605.1.15",Macintosh,Safari,16.3,OS X,10_15_7,"[""STRATEGY"",""ENVISION""]",0,clowns-trapeze,hurdle,"[""BREW"",""IMAGE"",""BENCH"",""STRATEGY"",""ADVERTISEMENT"",""UNSEEN"",""CLOWNS"",""BLAME"",""ENVISION"",""REFRESHMENT"",""ACRID"",""TRAPEZE"",""FOAM"",""GLUTTON"",""CHEAP"",""WHIMSICAL"",""CONFIRMATION"",""CONTROL"",""MAGPIE"",""PORRIDGE""]",0.0000878,1,low_a_low_p,
null,<p style='font-size: 48px;'>+</p>,null,fixation,95311,html-keyboard-response,111,1763505,0.0-3.0-0.50,18,2,2/24/23 13:40,197583627f3f28595f5da48ed5410dcb,,"Mozilla/5.0 (Macintosh; Intel Mac OS X 10_15_7) AppleWebKit/605.1.15 (KHTML, like Gecko) Version/16.3 Safari/605.1.15",Macintosh,Safari,16.3,OS X,10_15_7,,,,,,,,,
15681,HAMMER,"[""AXE"",""CHISEL""]",,95311,connector,112,1779190,0.0-3.0-1.50,18,2,2/24/23 13:40,197583627f3f28595f5da48ed5410dcb,,"Mozilla/5.0 (Macintosh; Intel Mac OS X 10_15_7) AppleWebKit/605.1.15 (KHTML, like Gecko) Version/16.3 Safari/605.1.15",Macintosh,Safari,16.3,OS X,10_15_7,"[""AXE"",""CHISEL""]",0,screws-chisel,hammer,"[""VARIOUS"",""AXE"",""STAMP"",""PASTY"",""SCREWS"",""KIMONO"",""APPLAUSE"",""AMBASSADOR"",""BARREN"",""SURGERY"",""PARTNER"",""INSIDER"",""CHISEL"",""INTER"",""FORM"",""EXHAUSTION"",""PARAGRAPH"",""CAKE"",""CONSTIPATION"",""INFLUENCE""]",0.00018572,241,high_a_high_p,
null,<p style='font-size: 48px;'>+</p>,null,fixation,95311,html-keyboard-response,113,1780197,0.0-3.0-0.51,18,2,2/24/23 13:40,197583627f3f28595f5da48ed5410dcb,,"Mozilla/5.0 (Macintosh; Intel Mac OS X 10_15_7) AppleWebKit/605.1.15 (KHTML, like Gecko) Version/16.3 Safari/605.1.15",Macintosh,Safari,16.3,OS X,10_15_7,,,,,,,,,
30634,ASTHMA,"[""OXYGEN"",""EYES""]",,95311,connector,114,1810838,0.0-3.0-1.51,18,2,2/24/23 13:40,197583627f3f28595f5da48ed5410dcb,,"Mozilla/5.0 (Macintosh; Intel Mac OS X 10_15_7) AppleWebKit/605.1.15 (KHTML, like Gecko) Version/16.3 Safari/605.1.15",Macintosh,Safari,16.3,OS X,10_15_7,"[""OXYGEN"",""EYES""]",0,vent-oxygen,asthma,"[""ROOKIE"",""VENT"",""POINTY"",""OXYGEN"",""SCANDAL"",""GINGERBREAD"",""OBLIGATORY"",""NEWBIE"",""CHOWDER"",""SEASONING"",""MALEVOLENT"",""AUDITORIUM"",""BOOGIE"",""APPLY"",""ENLARGE"",""MONEY"",""PLANES"",""EYES"",""CORNER"",""BRAMBLE""]",0.00015019,2,low_a_high_p,
null,<p style='font-size: 48px;'>+</p>,null,fixation,95311,html-keyboard-response,115,1811843,0.0-3.0-0.52,18,2,2/24/23 13:40,197583627f3f28595f5da48ed5410dcb,,"Mozilla/5.0 (Macintosh; Intel Mac OS X 10_15_7) AppleWebKit/605.1.15 (KHTML, like Gecko) Version/16.3 Safari/605.1.15",Macintosh,Safari,16.3,OS X,10_15_7,,,,,,,,,
12139,CATERPILLAR,"[""PLANT"",""UNRIPE""]",,95311,connector,116,1823987,0.0-3.0-1.52,18,2,2/24/23 13:40,197583627f3f28595f5da48ed5410dcb,,"Mozilla/5.0 (Macintosh; Intel Mac OS X 10_15_7) AppleWebKit/605.1.15 (KHTML, like Gecko) Version/16.3 Safari/605.1.15",Macintosh,Safari,16.3,OS X,10_15_7,"[""PLANT"",""UNRIPE""]",0,vines-plant,caterpillar,"[""THUMP"",""MISCHIEVOUS"",""DEMI"",""OUTSIDER"",""CALCIUM"",""MITTENS"",""PLANT"",""FORGIVE"",""BLANKETS"",""OMINOUS"",""REHEARSAL"",""VINES"",""REVEAL"",""SLOPE"",""CANINE"",""UNTRAINED"",""QUEEN"",""TENTATIVE"",""UNRIPE"",""NADA""]",0.0000913,1,low_a_low_p,
null,<p style='font-size: 48px;'>+</p>,null,fixation,95311,html-keyboard-response,117,1824992,0.0-3.0-0.53,18,2,2/24/23 13:40,197583627f3f28595f5da48ed5410dcb,,"Mozilla/5.0 (Macintosh; Intel Mac OS X 10_15_7) AppleWebKit/605.1.15 (KHTML, like Gecko) Version/16.3 Safari/605.1.15",Macintosh,Safari,16.3,OS X,10_15_7,,,,,,,,,
48616,MELODIOUS,"[""HUM"",""LOUDSPEAKER""]",,95311,connector,118,1873616,0.0-3.0-1.53,18,2,2/24/23 13:40,197583627f3f28595f5da48ed5410dcb,,"Mozilla/5.0 (Macintosh; Intel Mac OS X 10_15_7) AppleWebKit/605.1.15 (KHTML, like Gecko) Version/16.3 Safari/605.1.15",Macintosh,Safari,16.3,OS X,10_15_7,"[""HUM"",""LOUDSPEAKER""]",0,hum-clef,melodious,"[""ECONOMY"",""LOUDSPEAKER"",""GIRLY"",""BREATH"",""DUSTPAN"",""QUARTER"",""RANDOM"",""MODERATE"",""SKATER"",""HUM"",""DESSERT"",""BENEATH"",""MASCULINE"",""SLIPPERY"",""WATERPROOF"",""CLEF"",""LARGER"",""APPLES"",""COMPLIANT"",""SMOOTHIE""]",0.000185514,1,low_a_high_p,
null,<p style='font-size: 48px;'>+</p>,null,fixation,95311,html-keyboard-response,119,1874622,0.0-3.0-0.54,18,2,2/24/23 13:40,197583627f3f28595f5da48ed5410dcb,,"Mozilla/5.0 (Macintosh; Intel Mac OS X 10_15_7) AppleWebKit/605.1.15 (KHTML, like Gecko) Version/16.3 Safari/605.1.15",Macintosh,Safari,16.3,OS X,10_15_7,,,,,,,,,
10258,MOISTURE,"[""DROPS"",""SATURATE""]",,95311,connector,120,1884885,0.0-3.0-1.54,18,2,2/24/23 13:40,197583627f3f28595f5da48ed5410dcb,,"Mozilla/5.0 (Macintosh; Intel Mac OS X 10_15_7) AppleWebKit/605.1.15 (KHTML, like Gecko) Version/16.3 Safari/605.1.15",Macintosh,Safari,16.3,OS X,10_15_7,"[""DROPS"",""SATURATE""]",1,saturate-drops,moisture,"[""ASTEROID"",""DROPS"",""BURY"",""OBSERVATION"",""PONY"",""CIRCUIT"",""GIRAFFE"",""SPIKES"",""TENNIS"",""GREETINGS"",""PINCH"",""SWIMMING"",""BLEEDING"",""FINANCE"",""TRACK"",""STUDIOUS"",""MEDICATION"",""PROBLEMS"",""SATURATE"",""UNLESS""]",0.000183918,8,low_a_high_p,
null,<p style='font-size: 48px;'>+</p>,null,fixation,95311,html-keyboard-response,121,1885889,0.0-3.0-0.55,18,2,2/24/23 13:40,197583627f3f28595f5da48ed5410dcb,,"Mozilla/5.0 (Macintosh; Intel Mac OS X 10_15_7) AppleWebKit/605.1.15 (KHTML, like Gecko) Version/16.3 Safari/605.1.15",Macintosh,Safari,16.3,OS X,10_15_7,,,,,,,,,
19021,CLASSES,"[""TABLES"",""THINKER""]",,95311,connector,122,1904916,0.0-3.0-1.55,18,2,2/24/23 13:40,197583627f3f28595f5da48ed5410dcb,,"Mozilla/5.0 (Macintosh; Intel Mac OS X 10_15_7) AppleWebKit/605.1.15 (KHTML, like Gecko) Version/16.3 Safari/605.1.15",Macintosh,Safari,16.3,OS X,10_15_7,"[""TABLES"",""THINKER""]",0,knowing-thinker,classes,"[""STEALTH"",""FAITHFUL"",""FORTHRIGHT"",""CROWD"",""TABLES"",""KNOWING"",""MAKEUP"",""DISTANT"",""SUPERMARKET"",""JOURNEY"",""CAPTURE"",""GOOEY"",""SEEN"",""THINKER"",""IDOL"",""WITTY"",""TERMINAL"",""GEISHA"",""SENSUOUS"",""PURSE""]",0.0000893,1,low_a_low_p,
null,<p style='font-size: 48px;'>+</p>,null,fixation,95311,html-keyboard-response,123,1905922,0.0-3.0-0.56,18,2,2/24/23 13:40,197583627f3f28595f5da48ed5410dcb,,"Mozilla/5.0 (Macintosh; Intel Mac OS X 10_15_7) AppleWebKit/605.1.15 (KHTML, like Gecko) Version/16.3 Safari/605.1.15",Macintosh,Safari,16.3,OS X,10_15_7,,,,,,,,,
22341,TRANSFORM,"[""EDIT"",""LIGHTEN""]",,95311,connector,124,1928269,0.0-3.0-1.56,18,2,2/24/23 13:40,197583627f3f28595f5da48ed5410dcb,,"Mozilla/5.0 (Macintosh; Intel Mac OS X 10_15_7) AppleWebKit/605.1.15 (KHTML, like Gecko) Version/16.3 Safari/605.1.15",Macintosh,Safari,16.3,OS X,10_15_7,"[""EDIT"",""LIGHTEN""]",0,variance-edit,transform,"[""LARGELY"",""SPIES"",""PAPRIKA"",""LURE"",""EDIT"",""VEX"",""SENDING"",""PEARL"",""PASTA"",""SALOON"",""VARIETY"",""LIGHTEN"",""WEATHERMAN"",""POUND"",""POWER"",""VARIANCE"",""SCAR"",""EMBRACE"",""RARENESS"",""THREATEN""]",0.000178304,1,low_a_high_p,
null,<p style='font-size: 48px;'>+</p>,null,fixation,95311,html-keyboard-response,125,1929274,0.0-3.0-0.57,18,2,2/24/23 13:40,197583627f3f28595f5da48ed5410dcb,,"Mozilla/5.0 (Macintosh; Intel Mac OS X 10_15_7) AppleWebKit/605.1.15 (KHTML, like Gecko) Version/16.3 Safari/605.1.15",Macintosh,Safari,16.3,OS X,10_15_7,,,,,,,,,
33134,POKER,"[""AUCTION"",""FOLLOWING""]",,95311,connector,126,1962410,0.0-3.0-1.57,18,2,2/24/23 13:40,197583627f3f28595f5da48ed5410dcb,,"Mozilla/5.0 (Macintosh; Intel Mac OS X 10_15_7) AppleWebKit/605.1.15 (KHTML, like Gecko) Version/16.3 Safari/605.1.15",Macintosh,Safari,16.3,OS X,10_15_7,"[""AUCTION"",""FOLLOWING""]",0,auction-bank,poker,"[""SHAVE"",""BANK"",""USUAL"",""TIPS"",""RESIGNATION"",""BUBBLING"",""AUCTION"",""FLUORESCENT"",""TUB"",""INQUISITIVE"",""TOGETHERNESS"",""SHUTTLE"",""GALOSHES"",""SCULPTURE"",""WOODSMAN"",""PEPPERONI"",""INTRODUCTION"",""FOLLOWING"",""LEPRECHAUN"",""PARALLEL""]",0.0000953,4,low_a_low_p,
null,<p style='font-size: 48px;'>+</p>,null,fixation,95311,html-keyboard-response,127,1963415,0.0-3.0-0.58,18,2,2/24/23 13:40,197583627f3f28595f5da48ed5410dcb,,"Mozilla/5.0 (Macintosh; Intel Mac OS X 10_15_7) AppleWebKit/605.1.15 (KHTML, like Gecko) Version/16.3 Safari/605.1.15",Macintosh,Safari,16.3,OS X,10_15_7,,,,,,,,,
32241,MULTIPLICATION,"[""ACCOUNTING"",""ABACUS""]",,95311,connector,128,1995660,0.0-3.0-1.58,18,2,2/24/23 13:40,197583627f3f28595f5da48ed5410dcb,,"Mozilla/5.0 (Macintosh; Intel Mac OS X 10_15_7) AppleWebKit/605.1.15 (KHTML, like Gecko) Version/16.3 Safari/605.1.15",Macintosh,Safari,16.3,OS X,10_15_7,"[""ACCOUNTING"",""ABACUS""]",0,addition-abacus,multiplication,"[""ORNATE"",""ADVERSITY"",""ACCOUNTING"",""IMPLODE"",""LUBRICATION"",""GOATS"",""PERSONAL"",""RUCKUS"",""SCRIPT"",""SHEER"",""MARGARINE"",""ABACUS"",""AMEND"",""CONCLUSION"",""TALKER"",""CRISP"",""ADDITION"",""BARBECUE"",""FLINT"",""SONNET""]",0.000189126,77,high_a_high_p,
null,<p style='font-size: 48px;'>+</p>,null,fixation,95311,html-keyboard-response,129,1996664,0.0-3.0-0.59,18,2,2/24/23 13:40,197583627f3f28595f5da48ed5410dcb,,"Mozilla/5.0 (Macintosh; Intel Mac OS X 10_15_7) AppleWebKit/605.1.15 (KHTML, like Gecko) Version/16.3 Safari/605.1.15",Macintosh,Safari,16.3,OS X,10_15_7,,,,,,,,,
17305,BRAIN,"[""SCHOLAR"",""SPONGE""]",,95311,connector,130,2013976,0.0-3.0-1.59,18,2,2/24/23 13:40,197583627f3f28595f5da48ed5410dcb,,"Mozilla/5.0 (Macintosh; Intel Mac OS X 10_15_7) AppleWebKit/605.1.15 (KHTML, like Gecko) Version/16.3 Safari/605.1.15",Macintosh,Safari,16.3,OS X,10_15_7,"[""SCHOLAR"",""SPONGE""]",0,comprehension-understood,brain,"[""PLACENTA"",""DISREGARD"",""FLOWERY"",""STAR"",""SLING"",""DENOUNCE"",""BOWELS"",""GRAPE"",""DIVISION"",""GAIT"",""COMPREHENSION"",""SPONGE"",""OUNCE"",""POUCH"",""CUDDLE"",""CACHE"",""PROSECUTE"",""UNDERSTOOD"",""LETTER"",""SCHOLAR""]",0.0000882,47,high_a_low_p,
109614,,"{""age"":""20"",""gender"":""woman"",""education"":""14.5""}",demographics,95311,survey-text,131,2123610,0.0-4.0-0.0,18,2,2/24/23 13:40,197583627f3f28595f5da48ed5410dcb,,"Mozilla/5.0 (Macintosh; Intel Mac OS X 10_15_7) AppleWebKit/605.1.15 (KHTML, like Gecko) Version/16.3 Safari/605.1.15",Macintosh,Safari,16.3,OS X,10_15_7,,,,,,,,,
4148,,"{""race"":[""Asian""]}",demographics,95311,survey-multi-select,132,2127764,0.0-4.0-1.0,18,2,2/24/23 13:40,197583627f3f28595f5da48ed5410dcb,,"Mozilla/5.0 (Macintosh; Intel Mac OS X 10_15_7) AppleWebKit/605.1.15 (KHTML, like Gecko) Version/16.3 Safari/605.1.15",Macintosh,Safari,16.3,OS X,10_15_7,,,,,,,,,[0]
16888,,"{""ethnicity"":""No"",""dominant_hand"":""Right"",""alert"":""No Differences""}",demographics,95311,survey-multi-choice,133,2144659,0.0-4.0-2.0,18,2,2/24/23 13:40,197583627f3f28595f5da48ed5410dcb,,"Mozilla/5.0 (Macintosh; Intel Mac OS X 10_15_7) AppleWebKit/605.1.15 (KHTML, like Gecko) Version/16.3 Safari/605.1.15",Macintosh,Safari,16.3,OS X,10_15_7,,,,,,,,,"[0,1,2]"
10185,,"{""anything_else"":""""}",demographics,95311,survey-text,134,2154854,0.0-4.0-3.0,18,2,2/24/23 13:40,197583627f3f28595f5da48ed5410dcb,,"Mozilla/5.0 (Macintosh; Intel Mac OS X 10_15_7) AppleWebKit/605.1.15 (KHTML, like Gecko) Version/16.3 Safari/605.1.15",Macintosh,Safari,16.3,OS X,10_15_7,,,,,,,,,
149583,"<p style='font-size: 20px; padding-right: 10%; padding-left: 10%'> This concludes the experiment. Thank you for your participation! <br> <br> If you want to learn more about this study, feel free to read this <a target='_blank' href='https://docs.google.com/document/d/1i8IoBbswSEUIXgkM1o68yRQSi3qYNkqx/edit?usp=sharing&ouid=101741936850660538660&rtpof=true&sd=true'>debrief<a> document, which explains the purpose and theory behind this research, and contains contact information for the experimenters. If this research interests you, feel free to explore our <a target='_blank' href='https://thelexiconlab.github.io/'>lab website</a> as well! <br> <br> IMPORTANT: Please return to this site and click 'Finish and Save' to save your data after reading. <br> <br> Thank you again!",0,debrief,95311,html-button-response,135,2304442,0.0-5.0,18,2,2/24/23 13:40,197583627f3f28595f5da48ed5410dcb,,"Mozilla/5.0 (Macintosh; Intel Mac OS X 10_15_7) AppleWebKit/605.1.15 (KHTML, like Gecko) Version/16.3 Safari/605.1.15",Macintosh,Safari,16.3,OS X,10_15_7,,,,,,,,,
10454,"<p style='font-size: 20px; padding-right: 10%; padding-left: 10%'> Welcome to the Connector experiment, and thank you for choosing to participate! <br> <br> Please read the following instructions so that you know how to play the game: <br> <br> You will be shown a board of 20 words. In addition to the board, you will see a clue. You should think of this clue as coming from a friend or teammate, who is trying to indicate two of the words on the board without directly saying either of them. So, your goal is to interpret the clue and select the two words that you think are the most likely targets for that clue. </p>",0,instructions,12523,html-button-response,0,10457,0.0-0.0-0.0,9,3,2/23/23 0:20,197583627f3f28595f5da48ed5410dcb,,"Mozilla/5.0 (Macintosh; Intel Mac OS X 10_15_7) AppleWebKit/537.36 (KHTML, like Gecko) Chrome/110.0.0.0 Safari/537.36",Macintosh,Chrome,110.0.0.0,OS X,10_15_7,,,,,,,,,
22522,"<p style='font-size: 20px; padding-right: 10%; padding-left: 10%'> For example, consider the board below. Here, the clue is FOOD, and our player currently has FAMINE and CALORIE selected. <br> <br> <img src='example.png' style='border: 2px solid black'> <br> <br> When you are playing, simply click on words to select them. The words you click will turn green as a confirmation that they have been selected. If you accidentally click a word, or if you wish to change your choice, simply click a selected word to unselect it, and it will go back to gray. When exactly two words are selected, the Enter Responses button will illuminate. Once you are satisfied with your choices, click the Enter Responses button, and the experiment will automatically move to the next trial. <br> <br> To familiarize you with the game, there are four practice trials. As you play the game, be sure to attend to both speed and accuracy. In other words, make guesses that you think are likely to be correct, but don't linger too long on any one board. When you are ready, scroll down and click the button below to begin. <br> <br> There will be a pause between the practice trials and the experimental trials. </p>",0,instructions,12523,html-button-response,1,32982,0.0-0.0-1.0,9,3,2/23/23 0:20,197583627f3f28595f5da48ed5410dcb,,"Mozilla/5.0 (Macintosh; Intel Mac OS X 10_15_7) AppleWebKit/537.36 (KHTML, like Gecko) Chrome/110.0.0.0 Safari/537.36",Macintosh,Chrome,110.0.0.0,OS X,10_15_7,,,,,,,,,
null,<p style='font-size: 48px;'>+</p>,null,fixation,12523,html-keyboard-response,2,33988,0.0-1.0-0.0,9,3,2/23/23 0:20,197583627f3f28595f5da48ed5410dcb,,"Mozilla/5.0 (Macintosh; Intel Mac OS X 10_15_7) AppleWebKit/537.36 (KHTML, like Gecko) Chrome/110.0.0.0 Safari/537.36",Macintosh,Chrome,110.0.0.0,OS X,10_15_7,,,,,,,,,
10750,ROMANCE,"[""DATING"",""BOYFRIEND""]",practice,12523,connector,3,44743,0.0-1.0-1.0,9,3,2/23/23 0:20,197583627f3f28595f5da48ed5410dcb,,"Mozilla/5.0 (Macintosh; Intel Mac OS X 10_15_7) AppleWebKit/537.36 (KHTML, like Gecko) Chrome/110.0.0.0 Safari/537.36",Macintosh,Chrome,110.0.0.0,OS X,10_15_7,"[""DATING"",""BOYFRIEND""]",1,dating-boyfriend,romance,"[""LEGEND"",""WINDOW"",""SCALES"",""WIMP"",""MULTICULTURAL"",""ATTRACT"",""GEL"",""HAIL"",""BICEPS"",""PUDDLE"",""DATING"",""BOTHER"",""LAP"",""BOYFRIEND"",""INTRUSIVE"",""EVANGELICAL"",""BUST"",""PILE"",""VISUALIZE"",""CREVASSE""]",0.000165017,34,high_a_high_p,
null,<p style='font-size: 48px;'>+</p>,null,fixation,12523,html-keyboard-response,4,45752,0.0-1.0-0.1,9,3,2/23/23 0:20,197583627f3f28595f5da48ed5410dcb,,"Mozilla/5.0 (Macintosh; Intel Mac OS X 10_15_7) AppleWebKit/537.36 (KHTML, like Gecko) Chrome/110.0.0.0 Safari/537.36",Macintosh,Chrome,110.0.0.0,OS X,10_15_7,,,,,,,,,
32896,SWIMMER,"[""LIFEGUARD"",""BOATING""]",practice,12523,connector,5,78651,0.0-1.0-1.1,9,3,2/23/23 0:20,197583627f3f28595f5da48ed5410dcb,,"Mozilla/5.0 (Macintosh; Intel Mac OS X 10_15_7) AppleWebKit/537.36 (KHTML, like Gecko) Chrome/110.0.0.0 Safari/537.36",Macintosh,Chrome,110.0.0.0,OS X,10_15_7,"[""LIFEGUARD"",""BOATING""]",1,lifeguard-boating,swimmer,"[""TAPS"",""STRIP"",""LIGHTENING"",""RECEIVER"",""PERIMETER"",""TAKEOVER"",""RETIREMENT"",""THRIFTY"",""BOATING"",""GREED"",""ADMISSION"",""STONE"",""DECOMPOSITION"",""GUMMY"",""MISFORTUNE"",""LIFEGUARD"",""DIAGONAL"",""REJOICE"",""FOREVER"",""ORANGES""]",0.000168199,18,high_a_high_p,
null,<p style='font-size: 48px;'>+</p>,null,fixation,12523,html-keyboard-response,6,79663,0.0-1.0-0.2,9,3,2/23/23 0:20,197583627f3f28595f5da48ed5410dcb,,"Mozilla/5.0 (Macintosh; Intel Mac OS X 10_15_7) AppleWebKit/537.36 (KHTML, like Gecko) Chrome/110.0.0.0 Safari/537.36",Macintosh,Chrome,110.0.0.0,OS X,10_15_7,,,,,,,,,
10256,SPOOKY,"[""SUPERNATURAL"",""SCARY""]",practice,12523,connector,7,89923,0.0-1.0-1.2,9,3,2/23/23 0:20,197583627f3f28595f5da48ed5410dcb,,"Mozilla/5.0 (Macintosh; Intel Mac OS X 10_15_7) AppleWebKit/537.36 (KHTML, like Gecko) Chrome/110.0.0.0 Safari/537.36",Macintosh,Chrome,110.0.0.0,OS X,10_15_7,"[""SHADOWY"",""SUPERNATURAL"",""SCARY""]",1,scary-supernatural,spooky,"[""SKI"",""SHADOWY"",""KNOCK"",""PAYBACK"",""SUBMISSION"",""MAIZE"",""MICROSCOPE"",""SUPERNATURAL"",""SCARY"",""VALID"",""SINCERE"",""FLORAL"",""PAINKILLER"",""AIMLESS"",""PAL"",""VINTAGE"",""ENSEMBLE"",""PRESSURE"",""UNDERDOG"",""MINTS""]",0.000186499,75,high_a_high_p,
null,<p style='font-size: 48px;'>+</p>,null,fixation,12523,html-keyboard-response,8,90929,0.0-1.0-0.3,9,3,2/23/23 0:20,197583627f3f28595f5da48ed5410dcb,,"Mozilla/5.0 (Macintosh; Intel Mac OS X 10_15_7) AppleWebKit/537.36 (KHTML, like Gecko) Chrome/110.0.0.0 Safari/537.36",Macintosh,Chrome,110.0.0.0,OS X,10_15_7,,,,,,,,,
17838,PEACOCK,"[""FEATHER"",""GIANT""]",practice,12523,connector,9,108769,0.0-1.0-1.3,9,3,2/23/23 0:20,197583627f3f28595f5da48ed5410dcb,,"Mozilla/5.0 (Macintosh; Intel Mac OS X 10_15_7) AppleWebKit/537.36 (KHTML, like Gecko) Chrome/110.0.0.0 Safari/537.36",Macintosh,Chrome,110.0.0.0,OS X,10_15_7,"[""FEATHER"",""FOOLISH"",""GIANT""]",0,feather-toucan,peacock,"[""WHO"",""RITUAL"",""MUFFLED"",""FLIGHTY"",""MENACE"",""SURRENDER"",""TOUCAN"",""FOOTWEAR"",""WALKING"",""FEATHER"",""GIANT"",""CATS"",""FOOLISH"",""POSTERIOR"",""ENERGETIC"",""FORTIFY"",""CLIFF"",""DONKEY"",""ENGAGE"",""NONCHALANT""]",0.000183463,15,high_a_high_p,
31346,"<p style='font-size: 20px; padding-right: 10%; padding-left: 10%'> This concludes the practice trials. <br> <br> When you are ready, please click the button below, and the experiment will automatically move you through the 60 experimental trials.</p>",0,move_to_experiment,12523,html-button-response,10,140118,0.0-2.0,9,3,2/23/23 0:20,197583627f3f28595f5da48ed5410dcb,,"Mozilla/5.0 (Macintosh; Intel Mac OS X 10_15_7) AppleWebKit/537.36 (KHTML, like Gecko) Chrome/110.0.0.0 Safari/537.36",Macintosh,Chrome,110.0.0.0,OS X,10_15_7,,,,,,,,,
null,<p style='font-size: 48px;'>+</p>,null,fixation,12523,html-keyboard-response,11,141128,0.0-3.0-0.0,9,3,2/23/23 0:20,197583627f3f28595f5da48ed5410dcb,,"Mozilla/5.0 (Macintosh; Intel Mac OS X 10_15_7) AppleWebKit/537.36 (KHTML, like Gecko) Chrome/110.0.0.0 Safari/537.36",Macintosh,Chrome,110.0.0.0,OS X,10_15_7,,,,,,,,,
19895,GIRL,"[""ELEGANCE"",""GULP""]",,12523,connector,12,161027,0.0-3.0-1.0,9,3,2/23/23 0:20,197583627f3f28595f5da48ed5410dcb,,"Mozilla/5.0 (Macintosh; Intel Mac OS X 10_15_7) AppleWebKit/537.36 (KHTML, like Gecko) Chrome/110.0.0.0 Safari/537.36",Macintosh,Chrome,110.0.0.0,OS X,10_15_7,"[""ELEGANCE"",""GULP""]",0,pram-diapers,girl,"[""ANYWAY"",""LOUSE"",""CENTERED"",""SILL"",""PRAM"",""DIAPERS"",""ASPECT"",""ORDERED"",""GULP"",""STEERING"",""DISTURB"",""LENSES"",""CANARY"",""WIRELESS"",""ELEGANCE"",""TEXTURE"",""ROUGE"",""CARRYING"",""WISHFUL"",""SLUSHY""]",0.0000859,61,high_a_low_p,
null,<p style='font-size: 48px;'>+</p>,null,fixation,12523,html-keyboard-response,13,162037,0.0-3.0-0.1,9,3,2/23/23 0:20,197583627f3f28595f5da48ed5410dcb,,"Mozilla/5.0 (Macintosh; Intel Mac OS X 10_15_7) AppleWebKit/537.36 (KHTML, like Gecko) Chrome/110.0.0.0 Safari/537.36",Macintosh,Chrome,110.0.0.0,OS X,10_15_7,,,,,,,,,
8283,COMMERCE,"[""BANKS"",""EARNER""]",,12523,connector,14,170324,0.0-3.0-1.1,9,3,2/23/23 0:20,197583627f3f28595f5da48ed5410dcb,,"Mozilla/5.0 (Macintosh; Intel Mac OS X 10_15_7) AppleWebKit/537.36 (KHTML, like Gecko) Chrome/110.0.0.0 Safari/537.36",Macintosh,Chrome,110.0.0.0,OS X,10_15_7,"[""BANKS"",""EARNER""]",0,buyer-earner,commerce,"[""PREACHER"",""BUYER"",""BOILED"",""DISGUST"",""SWOLLEN"",""PITCH"",""ARTICHOKE"",""TWEET"",""KNITTING"",""MADLY"",""INTRICATE"",""CENTURY"",""AID"",""UNDERGROUND"",""PRODIGAL"",""TELESCOPE"",""BANKS"",""EARNER"",""RELATIVITY"",""TUNNEL""]",0.000177755,3,low_a_high_p,
null,<p style='font-size: 48px;'>+</p>,null,fixation,12523,html-keyboard-response,15,171336,0.0-3.0-0.2,9,3,2/23/23 0:20,197583627f3f28595f5da48ed5410dcb,,"Mozilla/5.0 (Macintosh; Intel Mac OS X 10_15_7) AppleWebKit/537.36 (KHTML, like Gecko) Chrome/110.0.0.0 Safari/537.36",Macintosh,Chrome,110.0.0.0,OS X,10_15_7,,,,,,,,,
12327,PERPETUAL,"[""ENDLESS"",""EVER""]",,12523,connector,16,183666,0.0-3.0-1.2,9,3,2/23/23 0:20,197583627f3f28595f5da48ed5410dcb,,"Mozilla/5.0 (Macintosh; Intel Mac OS X 10_15_7) AppleWebKit/537.36 (KHTML, like Gecko) Chrome/110.0.0.0 Safari/537.36",Macintosh,Chrome,110.0.0.0,OS X,10_15_7,"[""ENDLESS"",""EVER""]",1,ever-endless,perpetual,"[""PROSPERITY"",""MILLION"",""IMPROPER"",""STERILE"",""WRONG"",""ACCESSORY"",""RUBRIC"",""HOP"",""STEADY"",""GOO"",""TELEGRAPH"",""LAYOUT"",""SCIENTIFIC"",""MARAUDER"",""CONQUISTADOR"",""ENDLESS"",""LOAF"",""MAIDEN"",""RESTAURANT"",""EVER""]",0.000185175,9,low_a_high_p,
null,<p style='font-size: 48px;'>+</p>,null,fixation,12523,html-keyboard-response,17,184672,0.0-3.0-0.3,9,3,2/23/23 0:20,197583627f3f28595f5da48ed5410dcb,,"Mozilla/5.0 (Macintosh; Intel Mac OS X 10_15_7) AppleWebKit/537.36 (KHTML, like Gecko) Chrome/110.0.0.0 Safari/537.36",Macintosh,Chrome,110.0.0.0,OS X,10_15_7,,,,,,,,,
20767,FREE,"[""UNDESIRABLE"",""EXCITE""]",,12523,connector,18,205441,0.0-3.0-1.3,9,3,2/23/23 0:20,197583627f3f28595f5da48ed5410dcb,,"Mozilla/5.0 (Macintosh; Intel Mac OS X 10_15_7) AppleWebKit/537.36 (KHTML, like Gecko) Chrome/110.0.0.0 Safari/537.36",Macintosh,Chrome,110.0.0.0,OS X,10_15_7,"[""UNDESIRABLE"",""EXCITE""]",0,gluten-flour,free,"[""DOLLARS"",""RUFFLE"",""GLUTEN"",""ACHING"",""CHEERLEADER"",""MAJESTY"",""EXCITE"",""CREST"",""RESTART"",""PROGRAMMING"",""MOLDY"",""MOLECULE"",""CROSSROAD"",""SURROUNDED"",""UNDESIRABLE"",""FEROCIOUS"",""FLOUR"",""NEEDLE"",""CUSTOMER"",""CURTAIN""]",0.0000836,131,high_a_low_p,
null,<p style='font-size: 48px;'>+</p>,null,fixation,12523,html-keyboard-response,19,206449,0.0-3.0-0.4,9,3,2/23/23 0:20,197583627f3f28595f5da48ed5410dcb,,"Mozilla/5.0 (Macintosh; Intel Mac OS X 10_15_7) AppleWebKit/537.36 (KHTML, like Gecko) Chrome/110.0.0.0 Safari/537.36",Macintosh,Chrome,110.0.0.0,OS X,10_15_7,,,,,,,,,
11153,PEACE,"[""DOVE"",""SURFING""]",,12523,connector,20,217605,0.0-3.0-1.4,9,3,2/23/23 0:20,197583627f3f28595f5da48ed5410dcb,,"Mozilla/5.0 (Macintosh; Intel Mac OS X 10_15_7) AppleWebKit/537.36 (KHTML, like Gecko) Chrome/110.0.0.0 Safari/537.36",Macintosh,Chrome,110.0.0.0,OS X,10_15_7,"[""DOVE"",""SURFING""]",0,partridge-dove,peace,"[""RASCAL"",""CUSTODY"",""NEURON"",""BALANCE"",""DOVE"",""DANCER"",""IDENTICAL"",""THIEF"",""BRAKE"",""ACQUAINTANCE"",""PARTRIDGE"",""BIO"",""SANITY"",""COLLOQUIAL"",""FLUTTER"",""SURFING"",""AFTER"",""CRATER"",""SAUCEPAN"",""MUSK""]",0.0000897,198,high_a_low_p,
null,<p style='font-size: 48px;'>+</p>,null,fixation,12523,html-keyboard-response,21,218618,0.0-3.0-0.5,9,3,2/23/23 0:20,197583627f3f28595f5da48ed5410dcb,,"Mozilla/5.0 (Macintosh; Intel Mac OS X 10_15_7) AppleWebKit/537.36 (KHTML, like Gecko) Chrome/110.0.0.0 Safari/537.36",Macintosh,Chrome,110.0.0.0,OS X,10_15_7,,,,,,,,,
10181,INTELLIGENCE,"[""THINKER"",""WITTY""]",,12523,connector,22,228803,0.0-3.0-1.5,9,3,2/23/23 0:20,197583627f3f28595f5da48ed5410dcb,,"Mozilla/5.0 (Macintosh; Intel Mac OS X 10_15_7) AppleWebKit/537.36 (KHTML, like Gecko) Chrome/110.0.0.0 Safari/537.36",Macintosh,Chrome,110.0.0.0,OS X,10_15_7,"[""THINKER"",""WITTY""]",0,knowing-thinker,intelligence,"[""CROWD"",""CAPTURE"",""SEEN"",""STEALTH"",""THINKER"",""TABLES"",""FAITHFUL"",""SUPERMARKET"",""WITTY"",""FORTHRIGHT"",""MAKEUP"",""DISTANT"",""JOURNEY"",""IDOL"",""KNOWING"",""GOOEY"",""TERMINAL"",""PURSE"",""GEISHA"",""SENSUOUS""]",0.000167179,53,high_a_high_p,
null,<p style='font-size: 48px;'>+</p>,null,fixation,12523,html-keyboard-response,23,229809,0.0-3.0-0.6,9,3,2/23/23 0:20,197583627f3f28595f5da48ed5410dcb,,"Mozilla/5.0 (Macintosh; Intel Mac OS X 10_15_7) AppleWebKit/537.36 (KHTML, like Gecko) Chrome/110.0.0.0 Safari/537.36",Macintosh,Chrome,110.0.0.0,OS X,10_15_7,,,,,,,,,
8337,DEER,"[""FOAL"",""GALLOP""]",,12523,connector,24,238150,0.0-3.0-1.6,9,3,2/23/23 0:20,197583627f3f28595f5da48ed5410dcb,,"Mozilla/5.0 (Macintosh; Intel Mac OS X 10_15_7) AppleWebKit/537.36 (KHTML, like Gecko) Chrome/110.0.0.0 Safari/537.36",Macintosh,Chrome,110.0.0.0,OS X,10_15_7,"[""FOAL"",""GALLOP""]",1,gallop-foal,deer,"[""OCCURRENCE"",""MESH"",""LOBOTOMY"",""FINALLY"",""SPARSE"",""FOAL"",""NUTRITIOUS"",""PLACE"",""IRONY"",""ARTISTIC"",""LIVING"",""INFERENCE"",""STRAW"",""GALLOP"",""RUM"",""CHIP"",""INTENDED"",""EXTEND"",""SEQUENCE"",""METICULOUS""]",0.0000869,62,high_a_low_p,
null,<p style='font-size: 48px;'>+</p>,null,fixation,12523,html-keyboard-response,25,239162,0.0-3.0-0.7,9,3,2/23/23 0:20,197583627f3f28595f5da48ed5410dcb,,"Mozilla/5.0 (Macintosh; Intel Mac OS X 10_15_7) AppleWebKit/537.36 (KHTML, like Gecko) Chrome/110.0.0.0 Safari/537.36",Macintosh,Chrome,110.0.0.0,OS X,10_15_7,,,,,,,,,
23621,CREAM,"[""PEACHES"",""TOOTHACHE""]",,12523,connector,26,262788,0.0-3.0-1.7,9,3,2/23/23 0:20,197583627f3f28595f5da48ed5410dcb,,"Mozilla/5.0 (Macintosh; Intel Mac OS X 10_15_7) AppleWebKit/537.36 (KHTML, like Gecko) Chrome/110.0.0.0 Safari/537.36",Macintosh,Chrome,110.0.0.0,OS X,10_15_7,"[""PEACHES"",""TOOTHACHE""]",0,peaches-mandarin,cream,"[""SHOE"",""MANDARIN"",""OPTIMISTIC"",""CONSIDERATION"",""INSIGHTFUL"",""ZODIAC"",""HONEYDEW"",""VACCINATION"",""BOLTS"",""DETER"",""ELEPHANT"",""PEACHES"",""AUDIENCE"",""POTENT"",""MIGRAINE"",""SKITTISH"",""TOOTHACHE"",""BUCKLE"",""SINNER"",""RESOURCES""]",0.0000883,144,high_a_low_p,
null,<p style='font-size: 48px;'>+</p>,null,fixation,12523,html-keyboard-response,27,263799,0.0-3.0-0.8,9,3,2/23/23 0:20,197583627f3f28595f5da48ed5410dcb,,"Mozilla/5.0 (Macintosh; Intel Mac OS X 10_15_7) AppleWebKit/537.36 (KHTML, like Gecko) Chrome/110.0.0.0 Safari/537.36",Macintosh,Chrome,110.0.0.0,OS X,10_15_7,,,,,,,,,
127360,IVY,"[""PLANT"",""VINES""]",,12523,connector,28,391164,0.0-3.0-1.8,9,3,2/23/23 0:20,197583627f3f28595f5da48ed5410dcb,,"Mozilla/5.0 (Macintosh; Intel Mac OS X 10_15_7) AppleWebKit/537.36 (KHTML, like Gecko) Chrome/110.0.0.0 Safari/537.36",Macintosh,Chrome,110.0.0.0,OS X,10_15_7,"[""PLANT"",""VINES""]",1,vines-plant,ivy,"[""QUEEN"",""VINES"",""CALCIUM"",""THUMP"",""CANINE"",""TENTATIVE"",""UNTRAINED"",""FORGIVE"",""REVEAL"",""MISCHIEVOUS"",""REHEARSAL"",""DEMI"",""BLANKETS"",""NADA"",""MITTENS"",""PLANT"",""SLOPE"",""OMINOUS"",""UNRIPE"",""OUTSIDER""]",0.000152776,71,high_a_high_p,
null,<p style='font-size: 48px;'>+</p>,null,fixation,12523,html-keyboard-response,29,392171,0.0-3.0-0.9,9,3,2/23/23 0:20,197583627f3f28595f5da48ed5410dcb,,"Mozilla/5.0 (Macintosh; Intel Mac OS X 10_15_7) AppleWebKit/537.36 (KHTML, like Gecko) Chrome/110.0.0.0 Safari/537.36",Macintosh,Chrome,110.0.0.0,OS X,10_15_7,,,,,,,,,
8838,DONE,"[""LOSING"",""OVERCOME""]",,12523,connector,30,401014,0.0-3.0-1.9,9,3,2/23/23 0:20,197583627f3f28595f5da48ed5410dcb,,"Mozilla/5.0 (Macintosh; Intel Mac OS X 10_15_7) AppleWebKit/537.36 (KHTML, like Gecko) Chrome/110.0.0.0 Safari/537.36",Macintosh,Chrome,110.0.0.0,OS X,10_15_7,"[""LOSING"",""FEARFUL"",""OVERCOME""]",0,overcome-surpass,done,"[""SPIKE"",""DOLLAR"",""SURPASS"",""TRAGIC"",""ANEMIA"",""SHRUBS"",""FRY"",""ELECTRICAL"",""FEARFUL"",""LIGHTING"",""EIGHT"",""PASSIVE"",""OVERCOME"",""LOSING"",""PAGEANT"",""COOPERATIVE"",""INTEGRITY"",""RECEPTION"",""DREAMY"",""DISPUTE""]",0.0000844,39,high_a_low_p,
null,<p style='font-size: 48px;'>+</p>,null,fixation,12523,html-keyboard-response,31,402023,0.0-3.0-0.10,9,3,2/23/23 0:20,197583627f3f28595f5da48ed5410dcb,,"Mozilla/5.0 (Macintosh; Intel Mac OS X 10_15_7) AppleWebKit/537.36 (KHTML, like Gecko) Chrome/110.0.0.0 Safari/537.36",Macintosh,Chrome,110.0.0.0,OS X,10_15_7,,,,,,,,,
9844,HARD,"[""ADVERSITY"",""FLINT""]",,12523,connector,32,411871,0.0-3.0-1.10,9,3,2/23/23 0:20,197583627f3f28595f5da48ed5410dcb,,"Mozilla/5.0 (Macintosh; Intel Mac OS X 10_15_7) AppleWebKit/537.36 (KHTML, like Gecko) Chrome/110.0.0.0 Safari/537.36",Macintosh,Chrome,110.0.0.0,OS X,10_15_7,"[""ADVERSITY"",""FLINT""]",0,addition-abacus,hard,"[""BARBECUE"",""AMEND"",""SHEER"",""GOATS"",""SCRIPT"",""ABACUS"",""PERSONAL"",""MARGARINE"",""ORNATE"",""ADVERSITY"",""RUCKUS"",""SONNET"",""ACCOUNTING"",""LUBRICATION"",""ADDITION"",""CONCLUSION"",""CRISP"",""FLINT"",""TALKER"",""IMPLODE""]",0.0000828,52,high_a_low_p,
null,<p style='font-size: 48px;'>+</p>,null,fixation,12523,html-keyboard-response,33,412882,0.0-3.0-0.11,9,3,2/23/23 0:20,197583627f3f28595f5da48ed5410dcb,,"Mozilla/5.0 (Macintosh; Intel Mac OS X 10_15_7) AppleWebKit/537.36 (KHTML, like Gecko) Chrome/110.0.0.0 Safari/537.36",Macintosh,Chrome,110.0.0.0,OS X,10_15_7,,,,,,,,,
8604,SCHOOL,"[""LEARNER"",""SEMESTER""]",,12523,connector,34,421491,0.0-3.0-1.11,9,3,2/23/23 0:20,197583627f3f28595f5da48ed5410dcb,,"Mozilla/5.0 (Macintosh; Intel Mac OS X 10_15_7) AppleWebKit/537.36 (KHTML, like Gecko) Chrome/110.0.0.0 Safari/537.36",Macintosh,Chrome,110.0.0.0,OS X,10_15_7,"[""LEARNER"",""SEMESTER""]",0,semester-faculty,school,"[""LEARNER"",""ONCE"",""CYNIC"",""MAGNIFY"",""PRANKSTER"",""FIX"",""FACULTY"",""SWANKY"",""CHILDLESS"",""ANEW"",""COMET"",""GRAB"",""YOU"",""PEBBLE"",""EARNINGS"",""SEMESTER"",""STANDARD"",""IMPRISON"",""TOAD"",""ABORIGINE""]",0.000190946,367,high_a_high_p,
null,<p style='font-size: 48px;'>+</p>,null,fixation,12523,html-keyboard-response,35,422498,0.0-3.0-0.12,9,3,2/23/23 0:20,197583627f3f28595f5da48ed5410dcb,,"Mozilla/5.0 (Macintosh; Intel Mac OS X 10_15_7) AppleWebKit/537.36 (KHTML, like Gecko) Chrome/110.0.0.0 Safari/537.36",Macintosh,Chrome,110.0.0.0,OS X,10_15_7,,,,,,,,,
15848,CHOCOLATE,"[""CITRUS"",""TART""]",,12523,connector,36,438350,0.0-3.0-1.12,9,3,2/23/23 0:20,197583627f3f28595f5da48ed5410dcb,,"Mozilla/5.0 (Macintosh; Intel Mac OS X 10_15_7) AppleWebKit/537.36 (KHTML, like Gecko) Chrome/110.0.0.0 Safari/537.36",Macintosh,Chrome,110.0.0.0,OS X,10_15_7,"[""CITRUS"",""TART""]",1,citrus-tart,chocolate,"[""WOODWORKER"",""COMPETITION"",""ABSORBENT"",""NAVEL"",""TRACKS"",""CONSISTENT"",""CONTRACEPTION"",""CLASSIFY"",""TRAVERSE"",""OVERWHELMING"",""TART"",""LYRICS"",""APPROXIMATE"",""NIGHTINGALE"",""HOMEY"",""DESK"",""CITRUS"",""CONFIGURE"",""ADORATION"",""EXCEPTIONAL""]",0.0000904,53,high_a_low_p,
null,<p style='font-size: 48px;'>+</p>,null,fixation,12523,html-keyboard-response,37,439364,0.0-3.0-0.13,9,3,2/23/23 0:20,197583627f3f28595f5da48ed5410dcb,,"Mozilla/5.0 (Macintosh; Intel Mac OS X 10_15_7) AppleWebKit/537.36 (KHTML, like Gecko) Chrome/110.0.0.0 Safari/537.36",Macintosh,Chrome,110.0.0.0,OS X,10_15_7,,,,,,,,,
6518,UDDER,"[""COW"",""DAIRY""]",,12523,connector,38,445886,0.0-3.0-1.13,9,3,2/23/23 0:20,197583627f3f28595f5da48ed5410dcb,,"Mozilla/5.0 (Macintosh; Intel Mac OS X 10_15_7) AppleWebKit/537.36 (KHTML, like Gecko) Chrome/110.0.0.0 Safari/537.36",Macintosh,Chrome,110.0.0.0,OS X,10_15_7,"[""COW"",""DAIRY""]",1,cow-dairy,udder,"[""MEANDER"",""HEATING"",""INSUFFICIENT"",""HARPOON"",""DEPRESSION"",""DREAD"",""NATIONAL"",""SAFARI"",""COW"",""MANNERISM"",""BRIMSTONE"",""CRUSHED"",""DEPARTMENT"",""DAIRY"",""BUNCH"",""GEEK"",""SPYING"",""SAMPLE"",""FIELD"",""BIKINI""]",0.000207517,19,high_a_high_p,
null,<p style='font-size: 48px;'>+</p>,null,fixation,12523,html-keyboard-response,39,446888,0.0-3.0-0.14,9,3,2/23/23 0:20,197583627f3f28595f5da48ed5410dcb,,"Mozilla/5.0 (Macintosh; Intel Mac OS X 10_15_7) AppleWebKit/537.36 (KHTML, like Gecko) Chrome/110.0.0.0 Safari/537.36",Macintosh,Chrome,110.0.0.0,OS X,10_15_7,,,,,,,,,
11283,ADOLESCENCE,"[""YOUTHFUL"",""TEENAGER""]",,12523,connector,40,458175,0.0-3.0-1.14,9,3,2/23/23 0:20,197583627f3f28595f5da48ed5410dcb,,"Mozilla/5.0 (Macintosh; Intel Mac OS X 10_15_7) AppleWebKit/537.36 (KHTML, like Gecko) Chrome/110.0.0.0 Safari/537.36",Macintosh,Chrome,110.0.0.0,OS X,10_15_7,"[""YOUTHFUL"",""TEENAGER""]",1,teenager-youthful,adolescence,"[""WIFE"",""WISPY"",""YOUTHFUL"",""SHINGLES"",""CHIVALROUS"",""DEMOLISH"",""INVISIBLE"",""TREBLE"",""NUDITY"",""METRIC"",""DECLARE"",""IMAGINE"",""TOT"",""FRUSTRATED"",""RIDING"",""ROYALTY"",""GENERALLY"",""BELONGING"",""PENNY"",""TEENAGER""]",0.000190846,4,low_a_high_p,
null,<p style='font-size: 48px;'>+</p>,null,fixation,12523,html-keyboard-response,41,459188,0.0-3.0-0.15,9,3,2/23/23 0:20,197583627f3f28595f5da48ed5410dcb,,"Mozilla/5.0 (Macintosh; Intel Mac OS X 10_15_7) AppleWebKit/537.36 (KHTML, like Gecko) Chrome/110.0.0.0 Safari/537.36",Macintosh,Chrome,110.0.0.0,OS X,10_15_7,,,,,,,,,
8935,POWERFUL,"[""SHOUTING"",""STALLION""]",,12523,connector,42,468127,0.0-3.0-1.15,9,3,2/23/23 0:20,197583627f3f28595f5da48ed5410dcb,,"Mozilla/5.0 (Macintosh; Intel Mac OS X 10_15_7) AppleWebKit/537.36 (KHTML, like Gecko) Chrome/110.0.0.0 Safari/537.36",Macintosh,Chrome,110.0.0.0,OS X,10_15_7,"[""SHOUTING"",""STALLION""]",0,shouting-opinionated,powerful,"[""RESPECT"",""BUTTONS"",""SHOUTING"",""ARTS"",""HIDDEN"",""TRIPLE"",""MIGRATE"",""JUICER"",""RESTRICTED"",""CONVICT"",""SHELTER"",""LILAC"",""OPINIONATED"",""FORGETFUL"",""SOY"",""GAUDY"",""STALLION"",""DIFFER"",""VETERINARIAN"",""SURROUNDINGS""]",0.0000894,4,low_a_low_p,
null,<p style='font-size: 48px;'>+</p>,null,fixation,12523,html-keyboard-response,43,469138,0.0-3.0-0.16,9,3,2/23/23 0:20,197583627f3f28595f5da48ed5410dcb,,"Mozilla/5.0 (Macintosh; Intel Mac OS X 10_15_7) AppleWebKit/537.36 (KHTML, like Gecko) Chrome/110.0.0.0 Safari/537.36",Macintosh,Chrome,110.0.0.0,OS X,10_15_7,,,,,,,,,
10632,CHEF,"[""COOKER"",""SPINACH""]",,12523,connector,44,479776,0.0-3.0-1.16,9,3,2/23/23 0:20,197583627f3f28595f5da48ed5410dcb,,"Mozilla/5.0 (Macintosh; Intel Mac OS X 10_15_7) AppleWebKit/537.36 (KHTML, like Gecko) Chrome/110.0.0.0 Safari/537.36",Macintosh,Chrome,110.0.0.0,OS X,10_15_7,"[""COOKER"",""SPINACH""]",0,cooker-fodder,chef,"[""FODDER"",""ELEVATION"",""RIVER"",""INDIGNANT"",""MANUFACTURING"",""WIDOW"",""DEGREE"",""BURRITO"",""SPINACH"",""MENTAL"",""DRONE"",""UNFRIENDLY"",""LOVABLE"",""SHORE"",""SENSES"",""GOOF"",""SYMMETRY"",""FILTHY"",""SADNESS"",""COOKER""]",0.000172184,142,high_a_high_p,
null,<p style='font-size: 48px;'>+</p>,null,fixation,12523,html-keyboard-response,45,480788,0.0-3.0-0.17,9,3,2/23/23 0:20,197583627f3f28595f5da48ed5410dcb,,"Mozilla/5.0 (Macintosh; Intel Mac OS X 10_15_7) AppleWebKit/537.36 (KHTML, like Gecko) Chrome/110.0.0.0 Safari/537.36",Macintosh,Chrome,110.0.0.0,OS X,10_15_7,,,,,,,,,
6862,MEDIA,"[""BROADCAST"",""TELEVISION""]",,12523,connector,46,487655,0.0-3.0-1.17,9,3,2/23/23 0:20,197583627f3f28595f5da48ed5410dcb,,"Mozilla/5.0 (Macintosh; Intel Mac OS X 10_15_7) AppleWebKit/537.36 (KHTML, like Gecko) Chrome/110.0.0.0 Safari/537.36",Macintosh,Chrome,110.0.0.0,OS X,10_15_7,"[""BROADCAST"",""TELEVISION""]",1,broadcast-television,media,"[""AHOY"",""HELLFIRE"",""RAILWAY"",""PRIOR"",""HANGOVER"",""HEALTHY"",""LIPS"",""BAKE"",""SIN"",""FORCES"",""REPRESSION"",""BROADCAST"",""INTENSE"",""ODD"",""JAVELIN"",""SQUINT"",""TELEVISION"",""PHYSIOLOGY"",""SLIM"",""MOVIE""]",0.000159417,28,high_a_high_p,
null,<p style='font-size: 48px;'>+</p>,null,fixation,12523,html-keyboard-response,47,488668,0.0-3.0-0.18,9,3,2/23/23 0:20,197583627f3f28595f5da48ed5410dcb,,"Mozilla/5.0 (Macintosh; Intel Mac OS X 10_15_7) AppleWebKit/537.36 (KHTML, like Gecko) Chrome/110.0.0.0 Safari/537.36",Macintosh,Chrome,110.0.0.0,OS X,10_15_7,,,,,,,,,
20089,MEGA,"[""BYTE"",""COMMUTE""]",,12523,connector,48,508759,0.0-3.0-1.18,9,3,2/23/23 0:20,197583627f3f28595f5da48ed5410dcb,,"Mozilla/5.0 (Macintosh; Intel Mac OS X 10_15_7) AppleWebKit/537.36 (KHTML, like Gecko) Chrome/110.0.0.0 Safari/537.36",Macintosh,Chrome,110.0.0.0,OS X,10_15_7,"[""BYTE"",""COMMUTE""]",0,byte-graphics,mega,"[""ENTRY"",""EARS"",""COMMUTE"",""MAGGOT"",""DESTROYED"",""CHATTY"",""OFFLINE"",""THIRD"",""FIDDLER"",""CHRONIC"",""UPSTANDING"",""UNSTABLE"",""FAR"",""GRAPHICS"",""BYTE"",""CLAUSE"",""SPICE"",""STABLE"",""SKEPTICAL"",""BULLET""]",0.0000866,89,high_a_low_p,
null,<p style='font-size: 48px;'>+</p>,null,fixation,12523,html-keyboard-response,49,509772,0.0-3.0-0.19,9,3,2/23/23 0:20,197583627f3f28595f5da48ed5410dcb,,"Mozilla/5.0 (Macintosh; Intel Mac OS X 10_15_7) AppleWebKit/537.36 (KHTML, like Gecko) Chrome/110.0.0.0 Safari/537.36",Macintosh,Chrome,110.0.0.0,OS X,10_15_7,,,,,,,,,
9296,ANNOYANCE,"[""MALEVOLENT"",""BRAMBLE""]",,12523,connector,50,519073,0.0-3.0-1.19,9,3,2/23/23 0:20,197583627f3f28595f5da48ed5410dcb,,"Mozilla/5.0 (Macintosh; Intel Mac OS X 10_15_7) AppleWebKit/537.36 (KHTML, like Gecko) Chrome/110.0.0.0 Safari/537.36",Macintosh,Chrome,110.0.0.0,OS X,10_15_7,"[""MALEVOLENT"",""BRAMBLE""]",0,vent-oxygen,annoyance,"[""MALEVOLENT"",""CHOWDER"",""PLANES"",""ROOKIE"",""POINTY"",""MONEY"",""SCANDAL"",""NEWBIE"",""BOOGIE"",""EYES"",""CORNER"",""ENLARGE"",""SEASONING"",""APPLY"",""VENT"",""OXYGEN"",""BRAMBLE"",""AUDITORIUM"",""OBLIGATORY"",""GINGERBREAD""]",0.0000881,2,low_a_low_p,
null,<p style='font-size: 48px;'>+</p>,null,fixation,12523,html-keyboard-response,51,520083,0.0-3.0-0.20,9,3,2/23/23 0:20,197583627f3f28595f5da48ed5410dcb,,"Mozilla/5.0 (Macintosh; Intel Mac OS X 10_15_7) AppleWebKit/537.36 (KHTML, like Gecko) Chrome/110.0.0.0 Safari/537.36",Macintosh,Chrome,110.0.0.0,OS X,10_15_7,,,,,,,,,
8924,SHOES,"[""ATTIRE"",""WALKWAY""]",,12523,connector,52,529014,0.0-3.0-1.20,9,3,2/23/23 0:20,197583627f3f28595f5da48ed5410dcb,,"Mozilla/5.0 (Macintosh; Intel Mac OS X 10_15_7) AppleWebKit/537.36 (KHTML, like Gecko) Chrome/110.0.0.0 Safari/537.36",Macintosh,Chrome,110.0.0.0,OS X,10_15_7,"[""ATTIRE"",""WALKWAY""]",0,baggy-suspenders,shoes,"[""ATTIRE"",""COG"",""SKEPTIC"",""ANTIBIOTIC"",""SNEAKING"",""CEREAL"",""ROBIN"",""INTELLECTUAL"",""MINGLE"",""MONK"",""SUSPENDERS"",""BAGGY"",""SCYTHE"",""BUMPS"",""WALKWAY"",""PRESCHOOL"",""TEASE"",""DISCUS"",""WEIGHTLESS"",""AFFIRMATIVE""]",0.0000862,44,high_a_low_p,
null,<p style='font-size: 48px;'>+</p>,null,fixation,12523,html-keyboard-response,53,530020,0.0-3.0-0.21,9,3,2/23/23 0:20,197583627f3f28595f5da48ed5410dcb,,"Mozilla/5.0 (Macintosh; Intel Mac OS X 10_15_7) AppleWebKit/537.36 (KHTML, like Gecko) Chrome/110.0.0.0 Safari/537.36",Macintosh,Chrome,110.0.0.0,OS X,10_15_7,,,,,,,,,
9722,TOOTHBRUSH,"[""ANATOMY"",""CROWN""]",,12523,connector,54,539747,0.0-3.0-1.21,9,3,2/23/23 0:20,197583627f3f28595f5da48ed5410dcb,,"Mozilla/5.0 (Macintosh; Intel Mac OS X 10_15_7) AppleWebKit/537.36 (KHTML, like Gecko) Chrome/110.0.0.0 Safari/537.36",Macintosh,Chrome,110.0.0.0,OS X,10_15_7,"[""ANATOMY"",""CROWN""]",0,stickleback-piranha,toothbrush,"[""DRESSY"",""ENDEAVOR"",""CLARITY"",""PANCAKES"",""BREAKFAST"",""STICKLEBACK"",""PIRANHA"",""PERSON"",""WHEELCHAIR"",""PICTURESQUE"",""TESTIFY"",""RESOLUTION"",""ANATOMY"",""ATOM"",""IMITATE"",""HOMAGE"",""POND"",""TEACHER"",""CROWN"",""BREATHING""]",0.0000908,3,low_a_low_p,
null,<p style='font-size: 48px;'>+</p>,null,fixation,12523,html-keyboard-response,55,540755,0.0-3.0-0.22,9,3,2/23/23 0:20,197583627f3f28595f5da48ed5410dcb,,"Mozilla/5.0 (Macintosh; Intel Mac OS X 10_15_7) AppleWebKit/537.36 (KHTML, like Gecko) Chrome/110.0.0.0 Safari/537.36",Macintosh,Chrome,110.0.0.0,OS X,10_15_7,,,,,,,,,
10084,POSSUM,"[""RACCOON"",""CREATURE""]",,12523,connector,56,550843,0.0-3.0-1.22,9,3,2/23/23 0:20,197583627f3f28595f5da48ed5410dcb,,"Mozilla/5.0 (Macintosh; Intel Mac OS X 10_15_7) AppleWebKit/537.36 (KHTML, like Gecko) Chrome/110.0.0.0 Safari/537.36",Macintosh,Chrome,110.0.0.0,OS X,10_15_7,"[""RACCOON"",""CREATURE""]",1,raccoon-creature,possum,"[""RAINBOW"",""HIMSELF"",""DOPEY"",""CONNECT"",""BABBLING"",""INSTRUMENT"",""TRASHED"",""ONSET"",""RACCOON"",""OUTLANDISH"",""FORCED"",""CUB"",""WICKED"",""STUDIOS"",""ROTATE"",""REGAL"",""INVASION"",""OUTGOING"",""CREATURE"",""CONFIDANT""]",0.000171828,7,low_a_high_p,
null,<p style='font-size: 48px;'>+</p>,null,fixation,12523,html-keyboard-response,57,551849,0.0-3.0-0.23,9,3,2/23/23 0:20,197583627f3f28595f5da48ed5410dcb,,"Mozilla/5.0 (Macintosh; Intel Mac OS X 10_15_7) AppleWebKit/537.36 (KHTML, like Gecko) Chrome/110.0.0.0 Safari/537.36",Macintosh,Chrome,110.0.0.0,OS X,10_15_7,,,,,,,,,
11061,REALIZE,"[""UNDERSTOOD"",""COMPREHENSION""]",,12523,connector,58,562915,0.0-3.0-1.23,9,3,2/23/23 0:20,197583627f3f28595f5da48ed5410dcb,,"Mozilla/5.0 (Macintosh; Intel Mac OS X 10_15_7) AppleWebKit/537.36 (KHTML, like Gecko) Chrome/110.0.0.0 Safari/537.36",Macintosh,Chrome,110.0.0.0,OS X,10_15_7,"[""UNDERSTOOD"",""COMPREHENSION""]",1,comprehension-understood,realize,"[""POUCH"",""OUNCE"",""CUDDLE"",""SPONGE"",""DIVISION"",""COMPREHENSION"",""UNDERSTOOD"",""GRAPE"",""STAR"",""SLING"",""LETTER"",""GAIT"",""DISREGARD"",""BOWELS"",""DENOUNCE"",""FLOWERY"",""CACHE"",""PLACENTA"",""PROSECUTE"",""SCHOLAR""]",0.000154167,7,low_a_high_p,
null,<p style='font-size: 48px;'>+</p>,null,fixation,12523,html-keyboard-response,59,563924,0.0-3.0-0.24,9,3,2/23/23 0:20,197583627f3f28595f5da48ed5410dcb,,"Mozilla/5.0 (Macintosh; Intel Mac OS X 10_15_7) AppleWebKit/537.36 (KHTML, like Gecko) Chrome/110.0.0.0 Safari/537.36",Macintosh,Chrome,110.0.0.0,OS X,10_15_7,,,,,,,,,
11356,PALATABLE,"[""FLAVORFUL"",""INGREDIENTS""]",,12523,connector,60,575285,0.0-3.0-1.24,9,3,2/23/23 0:20,197583627f3f28595f5da48ed5410dcb,,"Mozilla/5.0 (Macintosh; Intel Mac OS X 10_15_7) AppleWebKit/537.36 (KHTML, like Gecko) Chrome/110.0.0.0 Safari/537.36",Macintosh,Chrome,110.0.0.0,OS X,10_15_7,"[""FLAVORFUL"",""INGREDIENTS""]",1,flavorful-ingredients,palatable,"[""RAG"",""THING"",""PERFECTION"",""INGREDIENTS"",""EXPLODE"",""WENT"",""SPHINX"",""RENTAL"",""TICKLE"",""WILDLIFE"",""GYMNASTICS"",""MICROWAVE"",""HOMELAND"",""CIRCUMSTANCE"",""MISSION"",""PRINCIPLE"",""COUNTRYSIDE"",""FLAVORFUL"",""RESEMBLE"",""INCENTIVE""]",0.00017849,2,low_a_high_p,
null,<p style='font-size: 48px;'>+</p>,null,fixation,12523,html-keyboard-response,61,576292,0.0-3.0-0.25,9,3,2/23/23 0:20,197583627f3f28595f5da48ed5410dcb,,"Mozilla/5.0 (Macintosh; Intel Mac OS X 10_15_7) AppleWebKit/537.36 (KHTML, like Gecko) Chrome/110.0.0.0 Safari/537.36",Macintosh,Chrome,110.0.0.0,OS X,10_15_7,,,,,,,,,
31662,GLASS,"[""PRISM"",""EXTINCTION""]",,12523,connector,62,607959,0.0-3.0-1.25,9,3,2/23/23 0:20,197583627f3f28595f5da48ed5410dcb,,"Mozilla/5.0 (Macintosh; Intel Mac OS X 10_15_7) AppleWebKit/537.36 (KHTML, like Gecko) Chrome/110.0.0.0 Safari/537.36",Macintosh,Chrome,110.0.0.0,OS X,10_15_7,"[""PRISM"",""PHENOMENON"",""EXTINCTION""]",0,prism-aura,glass,"[""PRISM"",""REGION"",""UNTRUE"",""COMPROMISE"",""SUSPENSE"",""GLISTEN"",""DOWNSTREAM"",""EXCEED"",""APACHE"",""NOG"",""WASHCLOTH"",""AURA"",""RODEO"",""PHENOMENON"",""EXPIRE"",""HOOT"",""DARLING"",""SUCCEED"",""PREGNANCY"",""EXTINCTION""]",0.0000895,111,high_a_low_p,
null,<p style='font-size: 48px;'>+</p>,null,fixation,12523,html-keyboard-response,63,608970,0.0-3.0-0.26,9,3,2/23/23 0:20,197583627f3f28595f5da48ed5410dcb,,"Mozilla/5.0 (Macintosh; Intel Mac OS X 10_15_7) AppleWebKit/537.36 (KHTML, like Gecko) Chrome/110.0.0.0 Safari/537.36",Macintosh,Chrome,110.0.0.0,OS X,10_15_7,,,,,,,,,
9434,UNIVERSITY,"[""TUITION"",""DECEIT""]",,12523,connector,64,618409,0.0-3.0-1.26,9,3,2/23/23 0:20,197583627f3f28595f5da48ed5410dcb,,"Mozilla/5.0 (Macintosh; Intel Mac OS X 10_15_7) AppleWebKit/537.36 (KHTML, like Gecko) Chrome/110.0.0.0 Safari/537.36",Macintosh,Chrome,110.0.0.0,OS X,10_15_7,"[""TUITION"",""DECEIT""]",0,tax-tuition,university,"[""CRINGE"",""ASTROLOGY"",""MANUAL"",""FOOTSTOOL"",""ASLEEP"",""PYRAMIDS"",""BELONGINGS"",""TUNES"",""ANTICIPATION"",""AMPHIBIAN"",""TUITION"",""DECEIT"",""OPPOSITE"",""GLAMOROUS"",""SHORTS"",""QUID"",""GENTLEMAN"",""HUNCH"",""SQUID"",""TAX""]",0.0000946,86,high_a_low_p,
null,<p style='font-size: 48px;'>+</p>,null,fixation,12523,html-keyboard-response,65,619422,0.0-3.0-0.27,9,3,2/23/23 0:20,197583627f3f28595f5da48ed5410dcb,,"Mozilla/5.0 (Macintosh; Intel Mac OS X 10_15_7) AppleWebKit/537.36 (KHTML, like Gecko) Chrome/110.0.0.0 Safari/537.36",Macintosh,Chrome,110.0.0.0,OS X,10_15_7,,,,,,,,,
11089,CIRCUS,"[""TRAPEZE"",""CLOWNS""]",,12523,connector,66,630514,0.0-3.0-1.27,9,3,2/23/23 0:20,197583627f3f28595f5da48ed5410dcb,,"Mozilla/5.0 (Macintosh; Intel Mac OS X 10_15_7) AppleWebKit/537.36 (KHTML, like Gecko) Chrome/110.0.0.0 Safari/537.36",Macintosh,Chrome,110.0.0.0,OS X,10_15_7,"[""TRAPEZE"",""CLOWNS""]",1,clowns-trapeze,circus,"[""BENCH"",""PORRIDGE"",""ADVERTISEMENT"",""CONFIRMATION"",""TRAPEZE"",""MAGPIE"",""CONTROL"",""WHIMSICAL"",""IMAGE"",""GLUTTON"",""FOAM"",""ENVISION"",""CHEAP"",""STRATEGY"",""ACRID"",""BLAME"",""BREW"",""UNSEEN"",""REFRESHMENT"",""CLOWNS""]",0.00020237,362,high_a_high_p,
null,<p style='font-size: 48px;'>+</p>,null,fixation,12523,html-keyboard-response,67,631524,0.0-3.0-0.28,9,3,2/23/23 0:20,197583627f3f28595f5da48ed5410dcb,,"Mozilla/5.0 (Macintosh; Intel Mac OS X 10_15_7) AppleWebKit/537.36 (KHTML, like Gecko) Chrome/110.0.0.0 Safari/537.36",Macintosh,Chrome,110.0.0.0,OS X,10_15_7,,,,,,,,,
20388,ALOUD,"[""LOUDSPEAKER"",""BREATH""]",,12523,connector,68,651918,0.0-3.0-1.28,9,3,2/23/23 0:20,197583627f3f28595f5da48ed5410dcb,,"Mozilla/5.0 (Macintosh; Intel Mac OS X 10_15_7) AppleWebKit/537.36 (KHTML, like Gecko) Chrome/110.0.0.0 Safari/537.36",Macintosh,Chrome,110.0.0.0,OS X,10_15_7,"[""LOUDSPEAKER"",""BREATH""]",0,hum-clef,aloud,"[""SMOOTHIE"",""HUM"",""LOUDSPEAKER"",""ECONOMY"",""SKATER"",""WATERPROOF"",""COMPLIANT"",""MASCULINE"",""QUARTER"",""BREATH"",""BENEATH"",""SLIPPERY"",""APPLES"",""LARGER"",""DUSTPAN"",""DESSERT"",""MODERATE"",""GIRLY"",""CLEF"",""RANDOM""]",0.000095,2,low_a_low_p,
