success,timeout,failed_images,failed_audio,failed_video,trial_type,trial_index,time_elapsed,internal_node_id,run_id,condition,recorded_at,source_code_version,ip,user_agent,device,browser,browser_version,platform,platform_version,sona_id,rt,response,type_of_trial,subject,id,stimulus,all_responses,accuracy,words,clue,board,pragmatics,accessibility,clue_type,is_seen,correct,age,gender,education,question_order,race,ethnicity,hand,alert,english,anything_else,first_language,age_learned
true,false,[],[],[],preload,0,22,0.0-0.0,21,3,2023-03-10 00:25:55,a36334bc01f1c5e0abd0a9896a30f3f3,,"Mozilla/5.0 (Macintosh; Intel Mac OS X 10_15_7) AppleWebKit/605.1.15 (KHTML, like Gecko) Version/16.3 Safari/605.1.15",Macintosh,Safari,16.3,OS X,10_15_7,41962,,,,,,,,,,,,,,,,,,,,,,,,,,
,,,,,survey-text,1,4089,0.0-1.0,21,3,2023-03-10 00:25:55,a36334bc01f1c5e0abd0a9896a30f3f3,,"Mozilla/5.0 (Macintosh; Intel Mac OS X 10_15_7) AppleWebKit/605.1.15 (KHTML, like Gecko) Version/16.3 Safari/605.1.15",Macintosh,Safari,16.3,OS X,10_15_7,41962,4058,"{""id"":""FM""}",id,14722,FM,,,,,,,,,,,,,,,,,,,,,
,,,,,html-button-response,2,27724,0.0-2.0-0.0,21,3,2023-03-10 00:25:55,a36334bc01f1c5e0abd0a9896a30f3f3,,"Mozilla/5.0 (Macintosh; Intel Mac OS X 10_15_7) AppleWebKit/605.1.15 (KHTML, like Gecko) Version/16.3 Safari/605.1.15",Macintosh,Safari,16.3,OS X,10_15_7,41962,23631,0,instructions,14722,,"<p style='font-size: 20px; padding-right: 10%; padding-left: 10%'> Welcome to the Connector experiment, and thank you for choosing to participate! <br> <br> Please read the following instructions so that you know how to play the game: <br> <br> You will be shown a board of 20 words. In addition to the board, you will see a clue. You should think of this clue as coming from a friend or teammate, who is trying to indicate two of the words on the board without directly saying either of them. So, your goal is to interpret the clue and select the two words that you think are the most likely targets for that clue. <br> <br> You will see a wide variety of clues. Keep in mind that some clues are better than others, but all clues are intended to point you toward two of the words on the board. If you are ever unfamiliar with a word, please do not pause to look it up, as this will interfere with the data. Instead, please use the knowledge you already have and make selections to the best of your ability, as this will give the most authentic response. </p>",,,,,,,,,,,,,,,,,,,,
,,,,,html-button-response,3,55441,0.0-2.0-1.0,21,3,2023-03-10 00:25:55,a36334bc01f1c5e0abd0a9896a30f3f3,,"Mozilla/5.0 (Macintosh; Intel Mac OS X 10_15_7) AppleWebKit/605.1.15 (KHTML, like Gecko) Version/16.3 Safari/605.1.15",Macintosh,Safari,16.3,OS X,10_15_7,41962,27714,0,instructions,14722,,"<p style='font-size: 20px; padding-right: 10%; padding-left: 10%'> For example, consider the board below. Here, the clue is FOOD, and our player currently has FAMINE and CALORIE selected. <br> <br> <img src='example.png' style='border: 2px solid black'> <br> <br> When you are playing, simply click on words to select them. The words you click will turn green as a confirmation that they have been selected. If you accidentally click a word, or if you wish to change your choice, simply click a selected word to unselect it, and it will go back to gray. When exactly two words are selected, the Enter Responses button will illuminate. Once you are satisfied with your choices, click the Enter Responses button, and the experiment will automatically move to the next trial. <br> <br> To familiarize you with the game, there are four practice trials. As you play the game, be sure to attend to both speed and accuracy. In other words, make guesses that you think are likely to be correct, but don't linger too long on any one board. When you are ready, click the button below to begin. <br> <br> There will be a pause between the practice trials and the experimental trials. </p>",,,,,,,,,,,,,,,,,,,,
,,,,,html-keyboard-response,4,56446,0.0-3.0-0.0,21,3,2023-03-10 00:25:55,a36334bc01f1c5e0abd0a9896a30f3f3,,"Mozilla/5.0 (Macintosh; Intel Mac OS X 10_15_7) AppleWebKit/605.1.15 (KHTML, like Gecko) Version/16.3 Safari/605.1.15",Macintosh,Safari,16.3,OS X,10_15_7,41962,null,null,fixation,14722,,<p style='font-size: 48px;'>+</p>,,,,,,,,,,,,,,,,,,,,
,,,,,connector,5,63298,0.0-3.0-1.0,21,3,2023-03-10 00:25:55,a36334bc01f1c5e0abd0a9896a30f3f3,,"Mozilla/5.0 (Macintosh; Intel Mac OS X 10_15_7) AppleWebKit/605.1.15 (KHTML, like Gecko) Version/16.3 Safari/605.1.15",Macintosh,Safari,16.3,OS X,10_15_7,41962,6848,"[""SUPERNATURAL"",""SHADOWY""]",practice,14722,,SPOOKY,"[""SUPERNATURAL"",""SHADOWY""]",0,scary-supernatural,spooky,"[""SCARY"",""VINTAGE"",""MINTS"",""MICROSCOPE"",""MAIZE"",""ENSEMBLE"",""KNOCK"",""SHADOWY"",""PAINKILLER"",""PAL"",""SKI"",""VALID"",""AIMLESS"",""FLORAL"",""SUPERNATURAL"",""UNDERDOG"",""PRESSURE"",""SINCERE"",""SUBMISSION"",""PAYBACK""]",0.000186499,75,high_a_high_p,,,,,,,,,,,,
,,,,,html-keyboard-response,6,64301,0.0-3.0-0.1,21,3,2023-03-10 00:25:55,a36334bc01f1c5e0abd0a9896a30f3f3,,"Mozilla/5.0 (Macintosh; Intel Mac OS X 10_15_7) AppleWebKit/605.1.15 (KHTML, like Gecko) Version/16.3 Safari/605.1.15",Macintosh,Safari,16.3,OS X,10_15_7,41962,null,null,fixation,14722,,<p style='font-size: 48px;'>+</p>,,,,,,,,,,,,,,,,,,,,
,,,,,connector,7,71651,0.0-3.0-1.1,21,3,2023-03-10 00:25:55,a36334bc01f1c5e0abd0a9896a30f3f3,,"Mozilla/5.0 (Macintosh; Intel Mac OS X 10_15_7) AppleWebKit/605.1.15 (KHTML, like Gecko) Version/16.3 Safari/605.1.15",Macintosh,Safari,16.3,OS X,10_15_7,41962,7346,"[""FLIGHTY"",""FEATHER""]",practice,14722,,PEACOCK,"[""FLIGHTY"",""FEATHER""]",0,feather-toucan,peacock,"[""GIANT"",""CATS"",""POSTERIOR"",""FOOTWEAR"",""MUFFLED"",""DONKEY"",""ENGAGE"",""CLIFF"",""FLIGHTY"",""RITUAL"",""FEATHER"",""FOOLISH"",""WALKING"",""WHO"",""ENERGETIC"",""FORTIFY"",""MENACE"",""TOUCAN"",""SURRENDER"",""NONCHALANT""]",0.000183463,15,high_a_high_p,,,,,,,,,,,,
,,,,,html-keyboard-response,8,72655,0.0-3.0-0.2,21,3,2023-03-10 00:25:55,a36334bc01f1c5e0abd0a9896a30f3f3,,"Mozilla/5.0 (Macintosh; Intel Mac OS X 10_15_7) AppleWebKit/605.1.15 (KHTML, like Gecko) Version/16.3 Safari/605.1.15",Macintosh,Safari,16.3,OS X,10_15_7,41962,null,null,fixation,14722,,<p style='font-size: 48px;'>+</p>,,,,,,,,,,,,,,,,,,,,
,,,,,connector,9,80506,0.0-3.0-1.2,21,3,2023-03-10 00:25:55,a36334bc01f1c5e0abd0a9896a30f3f3,,"Mozilla/5.0 (Macintosh; Intel Mac OS X 10_15_7) AppleWebKit/605.1.15 (KHTML, like Gecko) Version/16.3 Safari/605.1.15",Macintosh,Safari,16.3,OS X,10_15_7,41962,7849,"[""ATTRACT"",""BOYFRIEND""]",practice,14722,,ROMANCE,"[""ATTRACT"",""BOYFRIEND""]",0,dating-boyfriend,romance,"[""WINDOW"",""PILE"",""HAIL"",""BOYFRIEND"",""LEGEND"",""WIMP"",""LAP"",""CREVASSE"",""VISUALIZE"",""DATING"",""BUST"",""BOTHER"",""ATTRACT"",""MULTICULTURAL"",""GEL"",""EVANGELICAL"",""INTRUSIVE"",""PUDDLE"",""SCALES"",""BICEPS""]",0.000165017,34,high_a_high_p,,,,,,,,,,,,
,,,,,html-keyboard-response,10,81510,0.0-3.0-0.3,21,3,2023-03-10 00:25:55,a36334bc01f1c5e0abd0a9896a30f3f3,,"Mozilla/5.0 (Macintosh; Intel Mac OS X 10_15_7) AppleWebKit/605.1.15 (KHTML, like Gecko) Version/16.3 Safari/605.1.15",Macintosh,Safari,16.3,OS X,10_15_7,41962,null,null,fixation,14722,,<p style='font-size: 48px;'>+</p>,,,,,,,,,,,,,,,,,,,,
,,,,,connector,11,91536,0.0-3.0-1.3,21,3,2023-03-10 00:25:55,a36334bc01f1c5e0abd0a9896a30f3f3,,"Mozilla/5.0 (Macintosh; Intel Mac OS X 10_15_7) AppleWebKit/605.1.15 (KHTML, like Gecko) Version/16.3 Safari/605.1.15",Macintosh,Safari,16.3,OS X,10_15_7,41962,10024,"[""LIFEGUARD"",""LIGHTENING""]",practice,14722,,SWIMMER,"[""LIFEGUARD"",""LIGHTENING""]",0,lifeguard-boating,swimmer,"[""THRIFTY"",""STRIP"",""FOREVER"",""PERIMETER"",""GREED"",""TAKEOVER"",""TAPS"",""REJOICE"",""DIAGONAL"",""GUMMY"",""STONE"",""RECEIVER"",""DECOMPOSITION"",""ORANGES"",""ADMISSION"",""MISFORTUNE"",""BOATING"",""LIFEGUARD"",""LIGHTENING"",""RETIREMENT""]",0.000168199,18,high_a_high_p,,,,,,,,,,,,
,,,,,html-button-response,12,97506,0.0-4.0,21,3,2023-03-10 00:25:55,a36334bc01f1c5e0abd0a9896a30f3f3,,"Mozilla/5.0 (Macintosh; Intel Mac OS X 10_15_7) AppleWebKit/605.1.15 (KHTML, like Gecko) Version/16.3 Safari/605.1.15",Macintosh,Safari,16.3,OS X,10_15_7,41962,5967,0,move_to_experiment,14722,,"<p style='font-size: 20px; padding-right: 10%; padding-left: 10%'> This concludes the practice trials. <br> <br> When you are ready, please click the button below, and the experiment will automatically move you through the 60 experimental trials. <br> <br> NOTE: At random times during the experiment, you will be asked to recall the clue from the trial that you just completed. Make sure to pay attention, as missing any of these comprehension checks will discount all of your data. </p>",,,,,,,,,,,,,,,,,,,,
,,,,,html-keyboard-response,13,98510,0.0-5.0-0.0,21,3,2023-03-10 00:25:55,a36334bc01f1c5e0abd0a9896a30f3f3,,"Mozilla/5.0 (Macintosh; Intel Mac OS X 10_15_7) AppleWebKit/605.1.15 (KHTML, like Gecko) Version/16.3 Safari/605.1.15",Macintosh,Safari,16.3,OS X,10_15_7,41962,null,null,fixation,14722,,<p style='font-size: 48px;'>+</p>,,,,,,,,,,,,,,,,,,,,
,,,,,connector,14,107142,0.0-5.0-1.0,21,3,2023-03-10 00:25:55,a36334bc01f1c5e0abd0a9896a30f3f3,,"Mozilla/5.0 (Macintosh; Intel Mac OS X 10_15_7) AppleWebKit/605.1.15 (KHTML, like Gecko) Version/16.3 Safari/605.1.15",Macintosh,Safari,16.3,OS X,10_15_7,41962,8628,"[""BEARING"",""RELATIONSHIP""]",experiment,14722,,UNCOUTH,"[""BEARING"",""RELATIONSHIP""]",0,foul-repugnant,uncouth,"[""REPUGNANT"",""LEAFY"",""BEARING"",""ADDED"",""DORMANT"",""RIFT"",""BAD"",""FOUL"",""NEPHEW"",""REVOLVER"",""RELATIONSHIP"",""BLOOD"",""OLDER"",""PISTON"",""EVERGREEN"",""KEEN"",""ELEVATE"",""SAMENESS"",""HIT"",""SISTER""]",0.0000904,1,low_a_low_p,,,,,,,,,,,,
,,,,,survey-text,15,107155,0.0-5.0-2.0,21,3,2023-03-10 00:25:55,a36334bc01f1c5e0abd0a9896a30f3f3,,"Mozilla/5.0 (Macintosh; Intel Mac OS X 10_15_7) AppleWebKit/605.1.15 (KHTML, like Gecko) Version/16.3 Safari/605.1.15",Macintosh,Safari,16.3,OS X,10_15_7,41962,,,attention,14722,,,,,,uncouth,,,,,0,,,,,,,,,,,
,,,,,html-keyboard-response,16,108158,0.0-5.0-0.1,21,3,2023-03-10 00:25:55,a36334bc01f1c5e0abd0a9896a30f3f3,,"Mozilla/5.0 (Macintosh; Intel Mac OS X 10_15_7) AppleWebKit/605.1.15 (KHTML, like Gecko) Version/16.3 Safari/605.1.15",Macintosh,Safari,16.3,OS X,10_15_7,41962,null,null,fixation,14722,,<p style='font-size: 48px;'>+</p>,,,,,,,,,,,,,,,,,,,,
,,,,,connector,17,112302,0.0-5.0-1.1,21,3,2023-03-10 00:25:55,a36334bc01f1c5e0abd0a9896a30f3f3,,"Mozilla/5.0 (Macintosh; Intel Mac OS X 10_15_7) AppleWebKit/605.1.15 (KHTML, like Gecko) Version/16.3 Safari/605.1.15",Macintosh,Safari,16.3,OS X,10_15_7,41962,4140,"[""CLOWNS"",""TRAPEZE""]",experiment,14722,,CIRCUS,"[""CLOWNS"",""TRAPEZE""]",1,clowns-trapeze,circus,"[""CHEAP"",""ADVERTISEMENT"",""MAGPIE"",""BREW"",""CLOWNS"",""CONTROL"",""ACRID"",""WHIMSICAL"",""TRAPEZE"",""BENCH"",""STRATEGY"",""CONFIRMATION"",""FOAM"",""UNSEEN"",""PORRIDGE"",""ENVISION"",""REFRESHMENT"",""BLAME"",""GLUTTON"",""IMAGE""]",0.00020237,362,high_a_high_p,,,,,,,,,,,,
,,,,,survey-text,18,112314,0.0-5.0-2.1,21,3,2023-03-10 00:25:55,a36334bc01f1c5e0abd0a9896a30f3f3,,"Mozilla/5.0 (Macintosh; Intel Mac OS X 10_15_7) AppleWebKit/605.1.15 (KHTML, like Gecko) Version/16.3 Safari/605.1.15",Macintosh,Safari,16.3,OS X,10_15_7,41962,,,attention,14722,,,,,,circus,,,,,0,,,,,,,,,,,
,,,,,html-keyboard-response,19,113316,0.0-5.0-0.2,21,3,2023-03-10 00:25:55,a36334bc01f1c5e0abd0a9896a30f3f3,,"Mozilla/5.0 (Macintosh; Intel Mac OS X 10_15_7) AppleWebKit/605.1.15 (KHTML, like Gecko) Version/16.3 Safari/605.1.15",Macintosh,Safari,16.3,OS X,10_15_7,41962,null,null,fixation,14722,,<p style='font-size: 48px;'>+</p>,,,,,,,,,,,,,,,,,,,,
,,,,,connector,20,117341,0.0-5.0-1.2,21,3,2023-03-10 00:25:55,a36334bc01f1c5e0abd0a9896a30f3f3,,"Mozilla/5.0 (Macintosh; Intel Mac OS X 10_15_7) AppleWebKit/605.1.15 (KHTML, like Gecko) Version/16.3 Safari/605.1.15",Macintosh,Safari,16.3,OS X,10_15_7,41962,4020,"[""BURRITO"",""COOKER""]",experiment,14722,,CHEF,"[""BURRITO"",""COOKER""]",0,cooker-fodder,chef,"[""INDIGNANT"",""FODDER"",""RIVER"",""MENTAL"",""UNFRIENDLY"",""MANUFACTURING"",""GOOF"",""SHORE"",""SENSES"",""DEGREE"",""SADNESS"",""ELEVATION"",""COOKER"",""DRONE"",""LOVABLE"",""SPINACH"",""WIDOW"",""BURRITO"",""FILTHY"",""SYMMETRY""]",0.000172184,142,high_a_high_p,,,,,,,,,,,,
,,,,,survey-text,21,117350,0.0-5.0-2.2,21,3,2023-03-10 00:25:55,a36334bc01f1c5e0abd0a9896a30f3f3,,"Mozilla/5.0 (Macintosh; Intel Mac OS X 10_15_7) AppleWebKit/605.1.15 (KHTML, like Gecko) Version/16.3 Safari/605.1.15",Macintosh,Safari,16.3,OS X,10_15_7,41962,,,attention,14722,,,,,,chef,,,,,0,,,,,,,,,,,
,,,,,html-keyboard-response,22,118353,0.0-5.0-0.3,21,3,2023-03-10 00:25:55,a36334bc01f1c5e0abd0a9896a30f3f3,,"Mozilla/5.0 (Macintosh; Intel Mac OS X 10_15_7) AppleWebKit/605.1.15 (KHTML, like Gecko) Version/16.3 Safari/605.1.15",Macintosh,Safari,16.3,OS X,10_15_7,41962,null,null,fixation,14722,,<p style='font-size: 48px;'>+</p>,,,,,,,,,,,,,,,,,,,,
,,,,,connector,23,127593,0.0-5.0-1.3,21,3,2023-03-10 00:25:55,a36334bc01f1c5e0abd0a9896a30f3f3,,"Mozilla/5.0 (Macintosh; Intel Mac OS X 10_15_7) AppleWebKit/605.1.15 (KHTML, like Gecko) Version/16.3 Safari/605.1.15",Macintosh,Safari,16.3,OS X,10_15_7,41962,9236,"[""ANGELIC"",""FLOWING""]",experiment,14722,,DIVING,"[""ANGELIC"",""FLOWING""]",0,upstream-flowing,diving,"[""PUFF"",""CULTIVATE"",""RUE"",""FLOWING"",""SCAPEGOAT"",""ROTATION"",""APE"",""UPSTREAM"",""KITTY"",""MANGO"",""ANGELIC"",""DETACHMENT"",""METHODICAL"",""BOIL"",""ALIENS"",""DIET"",""WEEKLY"",""POSTER"",""EDUCATED"",""LUCK""]",0.000158944,1,low_a_high_p,,,,,,,,,,,,
,,,,,survey-text,24,127603,0.0-5.0-2.3,21,3,2023-03-10 00:25:55,a36334bc01f1c5e0abd0a9896a30f3f3,,"Mozilla/5.0 (Macintosh; Intel Mac OS X 10_15_7) AppleWebKit/605.1.15 (KHTML, like Gecko) Version/16.3 Safari/605.1.15",Macintosh,Safari,16.3,OS X,10_15_7,41962,,,attention,14722,,,,,,diving,,,,,0,,,,,,,,,,,
,,,,,html-keyboard-response,25,128606,0.0-5.0-0.4,21,3,2023-03-10 00:25:55,a36334bc01f1c5e0abd0a9896a30f3f3,,"Mozilla/5.0 (Macintosh; Intel Mac OS X 10_15_7) AppleWebKit/605.1.15 (KHTML, like Gecko) Version/16.3 Safari/605.1.15",Macintosh,Safari,16.3,OS X,10_15_7,41962,null,null,fixation,14722,,<p style='font-size: 48px;'>+</p>,,,,,,,,,,,,,,,,,,,,
,,,,,connector,26,135293,0.0-5.0-1.4,21,3,2023-03-10 00:25:55,a36334bc01f1c5e0abd0a9896a30f3f3,,"Mozilla/5.0 (Macintosh; Intel Mac OS X 10_15_7) AppleWebKit/605.1.15 (KHTML, like Gecko) Version/16.3 Safari/605.1.15",Macintosh,Safari,16.3,OS X,10_15_7,41962,6683,"[""SCHOLAR"",""COMPREHENSION""]",experiment,14722,,REALIZE,"[""SCHOLAR"",""COMPREHENSION""]",0,comprehension-understood,realize,"[""CUDDLE"",""POUCH"",""SLING"",""LETTER"",""SPONGE"",""FLOWERY"",""SCHOLAR"",""UNDERSTOOD"",""OUNCE"",""GAIT"",""DENOUNCE"",""CACHE"",""DIVISION"",""STAR"",""DISREGARD"",""BOWELS"",""PLACENTA"",""COMPREHENSION"",""GRAPE"",""PROSECUTE""]",0.000154167,7,low_a_high_p,,,,,,,,,,,,
,,,,,survey-text,27,135302,0.0-5.0-2.4,21,3,2023-03-10 00:25:55,a36334bc01f1c5e0abd0a9896a30f3f3,,"Mozilla/5.0 (Macintosh; Intel Mac OS X 10_15_7) AppleWebKit/605.1.15 (KHTML, like Gecko) Version/16.3 Safari/605.1.15",Macintosh,Safari,16.3,OS X,10_15_7,41962,,,attention,14722,,,,,,realize,,,,,0,,,,,,,,,,,
,,,,,html-keyboard-response,28,136305,0.0-5.0-0.5,21,3,2023-03-10 00:25:55,a36334bc01f1c5e0abd0a9896a30f3f3,,"Mozilla/5.0 (Macintosh; Intel Mac OS X 10_15_7) AppleWebKit/605.1.15 (KHTML, like Gecko) Version/16.3 Safari/605.1.15",Macintosh,Safari,16.3,OS X,10_15_7,41962,null,null,fixation,14722,,<p style='font-size: 48px;'>+</p>,,,,,,,,,,,,,,,,,,,,
,,,,,connector,29,143104,0.0-5.0-1.5,21,3,2023-03-10 00:25:55,a36334bc01f1c5e0abd0a9896a30f3f3,,"Mozilla/5.0 (Macintosh; Intel Mac OS X 10_15_7) AppleWebKit/605.1.15 (KHTML, like Gecko) Version/16.3 Safari/605.1.15",Macintosh,Safari,16.3,OS X,10_15_7,41962,6795,"[""CREATURE"",""TRASHED""]",experiment,14722,,POSSUM,"[""CREATURE"",""TRASHED""]",0,raccoon-creature,possum,"[""ONSET"",""WICKED"",""OUTLANDISH"",""TRASHED"",""FORCED"",""CONNECT"",""REGAL"",""HIMSELF"",""RACCOON"",""OUTGOING"",""CREATURE"",""RAINBOW"",""CUB"",""INSTRUMENT"",""DOPEY"",""ROTATE"",""CONFIDANT"",""INVASION"",""STUDIOS"",""BABBLING""]",0.000171828,7,low_a_high_p,,,,,,,,,,,,
,,,,,survey-text,30,143115,0.0-5.0-2.5,21,3,2023-03-10 00:25:55,a36334bc01f1c5e0abd0a9896a30f3f3,,"Mozilla/5.0 (Macintosh; Intel Mac OS X 10_15_7) AppleWebKit/605.1.15 (KHTML, like Gecko) Version/16.3 Safari/605.1.15",Macintosh,Safari,16.3,OS X,10_15_7,41962,,,attention,14722,,,,,,possum,,,,,0,,,,,,,,,,,
,,,,,html-keyboard-response,31,144118,0.0-5.0-0.6,21,3,2023-03-10 00:25:55,a36334bc01f1c5e0abd0a9896a30f3f3,,"Mozilla/5.0 (Macintosh; Intel Mac OS X 10_15_7) AppleWebKit/605.1.15 (KHTML, like Gecko) Version/16.3 Safari/605.1.15",Macintosh,Safari,16.3,OS X,10_15_7,41962,null,null,fixation,14722,,<p style='font-size: 48px;'>+</p>,,,,,,,,,,,,,,,,,,,,
,,,,,connector,32,149315,0.0-5.0-1.6,21,3,2023-03-10 00:25:55,a36334bc01f1c5e0abd0a9896a30f3f3,,"Mozilla/5.0 (Macintosh; Intel Mac OS X 10_15_7) AppleWebKit/605.1.15 (KHTML, like Gecko) Version/16.3 Safari/605.1.15",Macintosh,Safari,16.3,OS X,10_15_7,41962,5193,"[""HUM"",""BREATH""]",experiment,14722,,ALOUD,"[""HUM"",""BREATH""]",0,hum-clef,aloud,"[""COMPLIANT"",""CLEF"",""QUARTER"",""WATERPROOF"",""SKATER"",""MODERATE"",""DUSTPAN"",""BENEATH"",""DESSERT"",""RANDOM"",""LOUDSPEAKER"",""GIRLY"",""MASCULINE"",""ECONOMY"",""HUM"",""APPLES"",""SMOOTHIE"",""BREATH"",""SLIPPERY"",""LARGER""]",0.000095,2,low_a_low_p,,,,,,,,,,,,
,,,,,survey-text,33,149326,0.0-5.0-2.6,21,3,2023-03-10 00:25:55,a36334bc01f1c5e0abd0a9896a30f3f3,,"Mozilla/5.0 (Macintosh; Intel Mac OS X 10_15_7) AppleWebKit/605.1.15 (KHTML, like Gecko) Version/16.3 Safari/605.1.15",Macintosh,Safari,16.3,OS X,10_15_7,41962,,,attention,14722,,,,,,aloud,,,,,0,,,,,,,,,,,
,,,,,html-keyboard-response,34,150330,0.0-5.0-0.7,21,3,2023-03-10 00:25:55,a36334bc01f1c5e0abd0a9896a30f3f3,,"Mozilla/5.0 (Macintosh; Intel Mac OS X 10_15_7) AppleWebKit/605.1.15 (KHTML, like Gecko) Version/16.3 Safari/605.1.15",Macintosh,Safari,16.3,OS X,10_15_7,41962,null,null,fixation,14722,,<p style='font-size: 48px;'>+</p>,,,,,,,,,,,,,,,,,,,,
,,,,,connector,35,160807,0.0-5.0-1.7,21,3,2023-03-10 00:25:55,a36334bc01f1c5e0abd0a9896a30f3f3,,"Mozilla/5.0 (Macintosh; Intel Mac OS X 10_15_7) AppleWebKit/605.1.15 (KHTML, like Gecko) Version/16.3 Safari/605.1.15",Macintosh,Safari,16.3,OS X,10_15_7,41962,10473,"[""YOUTHFUL"",""TEENAGER""]",experiment,14722,,ADOLESCENCE,"[""YOUTHFUL"",""TEENAGER""]",1,teenager-youthful,adolescence,"[""ROYALTY"",""NUDITY"",""BELONGING"",""IMAGINE"",""GENERALLY"",""DEMOLISH"",""FRUSTRATED"",""TOT"",""YOUTHFUL"",""RIDING"",""CHIVALROUS"",""METRIC"",""WISPY"",""PENNY"",""SHINGLES"",""TEENAGER"",""INVISIBLE"",""DECLARE"",""WIFE"",""TREBLE""]",0.000190846,4,low_a_high_p,,,,,,,,,,,,
,,,,,survey-text,36,160818,0.0-5.0-2.7,21,3,2023-03-10 00:25:55,a36334bc01f1c5e0abd0a9896a30f3f3,,"Mozilla/5.0 (Macintosh; Intel Mac OS X 10_15_7) AppleWebKit/605.1.15 (KHTML, like Gecko) Version/16.3 Safari/605.1.15",Macintosh,Safari,16.3,OS X,10_15_7,41962,,,attention,14722,,,,,,adolescence,,,,,0,,,,,,,,,,,
,,,,,html-keyboard-response,37,161827,0.0-5.0-0.8,21,3,2023-03-10 00:25:55,a36334bc01f1c5e0abd0a9896a30f3f3,,"Mozilla/5.0 (Macintosh; Intel Mac OS X 10_15_7) AppleWebKit/605.1.15 (KHTML, like Gecko) Version/16.3 Safari/605.1.15",Macintosh,Safari,16.3,OS X,10_15_7,41962,null,null,fixation,14722,,<p style='font-size: 48px;'>+</p>,,,,,,,,,,,,,,,,,,,,
,,,,,connector,38,168730,0.0-5.0-1.8,21,3,2023-03-10 00:25:55,a36334bc01f1c5e0abd0a9896a30f3f3,,"Mozilla/5.0 (Macintosh; Intel Mac OS X 10_15_7) AppleWebKit/605.1.15 (KHTML, like Gecko) Version/16.3 Safari/605.1.15",Macintosh,Safari,16.3,OS X,10_15_7,41962,6899,"[""INEDIBLE"",""CANDY""]",experiment,14722,,EATING,"[""INEDIBLE"",""CANDY""]",0,platter-inedible,eating,"[""PLATTER"",""EROSION"",""CLAIM"",""CANDY"",""RULING"",""POP"",""UNSUCCESSFUL"",""TEENS"",""RAVENOUS"",""SOLDER"",""IMPAIRMENT"",""EARRING"",""LIT"",""LEMONY"",""WIND"",""LISP"",""MOVIES"",""ACTIONS"",""PEEK"",""INEDIBLE""]",0.000159968,17,high_a_high_p,,,,,,,,,,,,
,,,,,survey-text,39,168739,0.0-5.0-2.8,21,3,2023-03-10 00:25:55,a36334bc01f1c5e0abd0a9896a30f3f3,,"Mozilla/5.0 (Macintosh; Intel Mac OS X 10_15_7) AppleWebKit/605.1.15 (KHTML, like Gecko) Version/16.3 Safari/605.1.15",Macintosh,Safari,16.3,OS X,10_15_7,41962,,,attention,14722,,,,,,eating,,,,,0,,,,,,,,,,,
,,,,,html-keyboard-response,40,169742,0.0-5.0-0.9,21,3,2023-03-10 00:25:55,a36334bc01f1c5e0abd0a9896a30f3f3,,"Mozilla/5.0 (Macintosh; Intel Mac OS X 10_15_7) AppleWebKit/605.1.15 (KHTML, like Gecko) Version/16.3 Safari/605.1.15",Macintosh,Safari,16.3,OS X,10_15_7,41962,null,null,fixation,14722,,<p style='font-size: 48px;'>+</p>,,,,,,,,,,,,,,,,,,,,
,,,,,connector,41,177329,0.0-5.0-1.9,21,3,2023-03-10 00:25:55,a36334bc01f1c5e0abd0a9896a30f3f3,,"Mozilla/5.0 (Macintosh; Intel Mac OS X 10_15_7) AppleWebKit/605.1.15 (KHTML, like Gecko) Version/16.3 Safari/605.1.15",Macintosh,Safari,16.3,OS X,10_15_7,41962,7583,"[""SANITY"",""DOVE""]",experiment,14722,,PEACE,"[""SANITY"",""DOVE""]",0,partridge-dove,peace,"[""PARTRIDGE"",""ACQUAINTANCE"",""IDENTICAL"",""SURFING"",""RASCAL"",""SANITY"",""BRAKE"",""BALANCE"",""NEURON"",""COLLOQUIAL"",""CRATER"",""FLUTTER"",""CUSTODY"",""DOVE"",""MUSK"",""BIO"",""THIEF"",""DANCER"",""AFTER"",""SAUCEPAN""]",0.0000897,198,high_a_low_p,,,,,,,,,,,,
,,,,,survey-text,42,181991,0.0-5.0-2.9,21,3,2023-03-10 00:25:55,a36334bc01f1c5e0abd0a9896a30f3f3,,"Mozilla/5.0 (Macintosh; Intel Mac OS X 10_15_7) AppleWebKit/605.1.15 (KHTML, like Gecko) Version/16.3 Safari/605.1.15",Macintosh,Safari,16.3,OS X,10_15_7,41962,4651,peace,attention,14722,,,,,,peace,,,,,1,true,,,,,,,,,,
,,,,,html-keyboard-response,43,182994,0.0-5.0-0.10,21,3,2023-03-10 00:25:55,a36334bc01f1c5e0abd0a9896a30f3f3,,"Mozilla/5.0 (Macintosh; Intel Mac OS X 10_15_7) AppleWebKit/605.1.15 (KHTML, like Gecko) Version/16.3 Safari/605.1.15",Macintosh,Safari,16.3,OS X,10_15_7,41962,null,null,fixation,14722,,<p style='font-size: 48px;'>+</p>,,,,,,,,,,,,,,,,,,,,
,,,,,connector,44,189738,0.0-5.0-1.10,21,3,2023-03-10 00:25:55,a36334bc01f1c5e0abd0a9896a30f3f3,,"Mozilla/5.0 (Macintosh; Intel Mac OS X 10_15_7) AppleWebKit/605.1.15 (KHTML, like Gecko) Version/16.3 Safari/605.1.15",Macintosh,Safari,16.3,OS X,10_15_7,41962,6738,"[""BYTE"",""FAR""]",experiment,14722,,MEGA,"[""BYTE"",""FAR""]",0,byte-graphics,mega,"[""UNSTABLE"",""FIDDLER"",""BYTE"",""GRAPHICS"",""UPSTANDING"",""BULLET"",""THIRD"",""COMMUTE"",""CHATTY"",""ENTRY"",""CLAUSE"",""EARS"",""MAGGOT"",""CHRONIC"",""SKEPTICAL"",""DESTROYED"",""OFFLINE"",""STABLE"",""FAR"",""SPICE""]",0.0000866,89,high_a_low_p,,,,,,,,,,,,
,,,,,survey-text,45,189744,0.0-5.0-2.10,21,3,2023-03-10 00:25:55,a36334bc01f1c5e0abd0a9896a30f3f3,,"Mozilla/5.0 (Macintosh; Intel Mac OS X 10_15_7) AppleWebKit/605.1.15 (KHTML, like Gecko) Version/16.3 Safari/605.1.15",Macintosh,Safari,16.3,OS X,10_15_7,41962,,,attention,14722,,,,,,mega,,,,,0,,,,,,,,,,,
,,,,,html-keyboard-response,46,190747,0.0-5.0-0.11,21,3,2023-03-10 00:25:55,a36334bc01f1c5e0abd0a9896a30f3f3,,"Mozilla/5.0 (Macintosh; Intel Mac OS X 10_15_7) AppleWebKit/605.1.15 (KHTML, like Gecko) Version/16.3 Safari/605.1.15",Macintosh,Safari,16.3,OS X,10_15_7,41962,null,null,fixation,14722,,<p style='font-size: 48px;'>+</p>,,,,,,,,,,,,,,,,,,,,
,,,,,connector,47,198190,0.0-5.0-1.11,21,3,2023-03-10 00:25:55,a36334bc01f1c5e0abd0a9896a30f3f3,,"Mozilla/5.0 (Macintosh; Intel Mac OS X 10_15_7) AppleWebKit/605.1.15 (KHTML, like Gecko) Version/16.3 Safari/605.1.15",Macintosh,Safari,16.3,OS X,10_15_7,41962,7438,"[""GALLOP"",""CHIP""]",experiment,14722,,DEER,"[""GALLOP"",""CHIP""]",0,gallop-foal,deer,"[""MESH"",""FOAL"",""ARTISTIC"",""RUM"",""METICULOUS"",""GALLOP"",""OCCURRENCE"",""IRONY"",""CHIP"",""SEQUENCE"",""LOBOTOMY"",""PLACE"",""SPARSE"",""INFERENCE"",""NUTRITIOUS"",""STRAW"",""INTENDED"",""EXTEND"",""FINALLY"",""LIVING""]",0.0000869,62,high_a_low_p,,,,,,,,,,,,
,,,,,survey-text,48,198201,0.0-5.0-2.11,21,3,2023-03-10 00:25:55,a36334bc01f1c5e0abd0a9896a30f3f3,,"Mozilla/5.0 (Macintosh; Intel Mac OS X 10_15_7) AppleWebKit/605.1.15 (KHTML, like Gecko) Version/16.3 Safari/605.1.15",Macintosh,Safari,16.3,OS X,10_15_7,41962,,,attention,14722,,,,,,deer,,,,,0,,,,,,,,,,,
,,,,,html-keyboard-response,49,199204,0.0-5.0-0.12,21,3,2023-03-10 00:25:55,a36334bc01f1c5e0abd0a9896a30f3f3,,"Mozilla/5.0 (Macintosh; Intel Mac OS X 10_15_7) AppleWebKit/605.1.15 (KHTML, like Gecko) Version/16.3 Safari/605.1.15",Macintosh,Safari,16.3,OS X,10_15_7,41962,null,null,fixation,14722,,<p style='font-size: 48px;'>+</p>,,,,,,,,,,,,,,,,,,,,
,,,,,connector,50,208928,0.0-5.0-1.12,21,3,2023-03-10 00:25:55,a36334bc01f1c5e0abd0a9896a30f3f3,,"Mozilla/5.0 (Macintosh; Intel Mac OS X 10_15_7) AppleWebKit/605.1.15 (KHTML, like Gecko) Version/16.3 Safari/605.1.15",Macintosh,Safari,16.3,OS X,10_15_7,41962,9719,"[""OPINIONATED"",""GAUDY""]",experiment,14722,,POWERFUL,"[""OPINIONATED"",""GAUDY""]",0,shouting-opinionated,powerful,"[""SOY"",""MIGRATE"",""LILAC"",""VETERINARIAN"",""CONVICT"",""RESPECT"",""BUTTONS"",""SURROUNDINGS"",""ARTS"",""FORGETFUL"",""GAUDY"",""JUICER"",""SHOUTING"",""STALLION"",""HIDDEN"",""OPINIONATED"",""RESTRICTED"",""DIFFER"",""SHELTER"",""TRIPLE""]",0.0000894,4,low_a_low_p,,,,,,,,,,,,
,,,,,survey-text,51,208937,0.0-5.0-2.12,21,3,2023-03-10 00:25:55,a36334bc01f1c5e0abd0a9896a30f3f3,,"Mozilla/5.0 (Macintosh; Intel Mac OS X 10_15_7) AppleWebKit/605.1.15 (KHTML, like Gecko) Version/16.3 Safari/605.1.15",Macintosh,Safari,16.3,OS X,10_15_7,41962,,,attention,14722,,,,,,powerful,,,,,0,,,,,,,,,,,
,,,,,html-keyboard-response,52,209941,0.0-5.0-0.13,21,3,2023-03-10 00:25:55,a36334bc01f1c5e0abd0a9896a30f3f3,,"Mozilla/5.0 (Macintosh; Intel Mac OS X 10_15_7) AppleWebKit/605.1.15 (KHTML, like Gecko) Version/16.3 Safari/605.1.15",Macintosh,Safari,16.3,OS X,10_15_7,41962,null,null,fixation,14722,,<p style='font-size: 48px;'>+</p>,,,,,,,,,,,,,,,,,,,,
,,,,,connector,53,215930,0.0-5.0-1.13,21,3,2023-03-10 00:25:55,a36334bc01f1c5e0abd0a9896a30f3f3,,"Mozilla/5.0 (Macintosh; Intel Mac OS X 10_15_7) AppleWebKit/605.1.15 (KHTML, like Gecko) Version/16.3 Safari/605.1.15",Macintosh,Safari,16.3,OS X,10_15_7,41962,5986,"[""GRANDPARENT"",""MATURITY""]",experiment,14722,,ELDERLY,"[""GRANDPARENT"",""MATURITY""]",1,grandparent-maturity,elderly,"[""MORBID"",""RUB"",""ENVY"",""DELIVER"",""ADULTS"",""AGITATED"",""SATISFACTION"",""ZOO"",""MATURITY"",""GRANDPARENT"",""REGARD"",""CEREMONY"",""STY"",""CHEWING"",""WORLD"",""FELINE"",""STEM"",""SPLENDID"",""GENOCIDE"",""POSSESSIVE""]",0.000188976,60,high_a_high_p,,,,,,,,,,,,
,,,,,survey-text,54,215940,0.0-5.0-2.13,21,3,2023-03-10 00:25:55,a36334bc01f1c5e0abd0a9896a30f3f3,,"Mozilla/5.0 (Macintosh; Intel Mac OS X 10_15_7) AppleWebKit/605.1.15 (KHTML, like Gecko) Version/16.3 Safari/605.1.15",Macintosh,Safari,16.3,OS X,10_15_7,41962,,,attention,14722,,,,,,elderly,,,,,0,,,,,,,,,,,
,,,,,html-keyboard-response,55,216943,0.0-5.0-0.14,21,3,2023-03-10 00:25:55,a36334bc01f1c5e0abd0a9896a30f3f3,,"Mozilla/5.0 (Macintosh; Intel Mac OS X 10_15_7) AppleWebKit/605.1.15 (KHTML, like Gecko) Version/16.3 Safari/605.1.15",Macintosh,Safari,16.3,OS X,10_15_7,41962,null,null,fixation,14722,,<p style='font-size: 48px;'>+</p>,,,,,,,,,,,,,,,,,,,,
,,,,,connector,56,226095,0.0-5.0-1.14,21,3,2023-03-10 00:25:55,a36334bc01f1c5e0abd0a9896a30f3f3,,"Mozilla/5.0 (Macintosh; Intel Mac OS X 10_15_7) AppleWebKit/605.1.15 (KHTML, like Gecko) Version/16.3 Safari/605.1.15",Macintosh,Safari,16.3,OS X,10_15_7,41962,9148,"[""CONSUMPTION"",""RECIPE""]",experiment,14722,,APPETITE,"[""CONSUMPTION"",""RECIPE""]",0,starve-consumption,appetite,"[""APES"",""OBLIVIOUS"",""ABS"",""RECIPE"",""TRUCKS"",""WEEP"",""COMPLICATED"",""MISBEHAVE"",""SCARF"",""ACTIVITY"",""GOLFER"",""USURPER"",""COLLECTION"",""MOAT"",""CONSUMPTION"",""STARVE"",""GHOSTLY"",""HOSPITAL"",""COMIC"",""QUILT""]",0.000193513,2,low_a_high_p,,,,,,,,,,,,
,,,,,survey-text,57,226104,0.0-5.0-2.14,21,3,2023-03-10 00:25:55,a36334bc01f1c5e0abd0a9896a30f3f3,,"Mozilla/5.0 (Macintosh; Intel Mac OS X 10_15_7) AppleWebKit/605.1.15 (KHTML, like Gecko) Version/16.3 Safari/605.1.15",Macintosh,Safari,16.3,OS X,10_15_7,41962,,,attention,14722,,,,,,appetite,,,,,0,,,,,,,,,,,
,,,,,html-keyboard-response,58,227107,0.0-5.0-0.15,21,3,2023-03-10 00:25:55,a36334bc01f1c5e0abd0a9896a30f3f3,,"Mozilla/5.0 (Macintosh; Intel Mac OS X 10_15_7) AppleWebKit/605.1.15 (KHTML, like Gecko) Version/16.3 Safari/605.1.15",Macintosh,Safari,16.3,OS X,10_15_7,41962,null,null,fixation,14722,,<p style='font-size: 48px;'>+</p>,,,,,,,,,,,,,,,,,,,,
,,,,,connector,59,232800,0.0-5.0-1.15,21,3,2023-03-10 00:25:55,a36334bc01f1c5e0abd0a9896a30f3f3,,"Mozilla/5.0 (Macintosh; Intel Mac OS X 10_15_7) AppleWebKit/605.1.15 (KHTML, like Gecko) Version/16.3 Safari/605.1.15",Macintosh,Safari,16.3,OS X,10_15_7,41962,5682,"[""TURKEY"",""SIRLOIN""]",experiment,14722,,STEAK,"[""TURKEY"",""SIRLOIN""]",0,grill-sirloin,steak,"[""GRILL"",""HUT"",""ENRAGE"",""TURKEY"",""ELEVEN"",""SMOOTH"",""DISBELIEVE"",""CRAFTSMAN"",""REFRESHING"",""JAZZ"",""NOD"",""SIRLOIN"",""TWINS"",""JET"",""UNDERSTANDING"",""HARDCORE"",""ARACHNID"",""HUGE"",""FROST"",""GAZE""]",0.000190508,372,high_a_high_p,,,,,,,,,,,,
,,,,,survey-text,60,232809,0.0-5.0-2.15,21,3,2023-03-10 00:25:55,a36334bc01f1c5e0abd0a9896a30f3f3,,"Mozilla/5.0 (Macintosh; Intel Mac OS X 10_15_7) AppleWebKit/605.1.15 (KHTML, like Gecko) Version/16.3 Safari/605.1.15",Macintosh,Safari,16.3,OS X,10_15_7,41962,,,attention,14722,,,,,,steak,,,,,0,,,,,,,,,,,
,,,,,html-keyboard-response,61,233811,0.0-5.0-0.16,21,3,2023-03-10 00:25:55,a36334bc01f1c5e0abd0a9896a30f3f3,,"Mozilla/5.0 (Macintosh; Intel Mac OS X 10_15_7) AppleWebKit/605.1.15 (KHTML, like Gecko) Version/16.3 Safari/605.1.15",Macintosh,Safari,16.3,OS X,10_15_7,41962,null,null,fixation,14722,,<p style='font-size: 48px;'>+</p>,,,,,,,,,,,,,,,,,,,,
,,,,,connector,62,242448,0.0-5.0-1.16,21,3,2023-03-10 00:25:55,a36334bc01f1c5e0abd0a9896a30f3f3,,"Mozilla/5.0 (Macintosh; Intel Mac OS X 10_15_7) AppleWebKit/605.1.15 (KHTML, like Gecko) Version/16.3 Safari/605.1.15",Macintosh,Safari,16.3,OS X,10_15_7,41962,8631,"[""OXEN"",""LASSO""]",experiment,14722,,TAILS,"[""OXEN"",""LASSO""]",0,lasso-mare,tails,"[""COLLEAGUE"",""SPATULA"",""GROOVE"",""RETIRE"",""INTEGER"",""SYNDROME"",""DICTATE"",""SHOTS"",""MARE"",""WORTHLESS"",""LASSO"",""BEATEN"",""DEPENDENT"",""OXEN"",""LATTER"",""DUO"",""EXTERIOR"",""HAPPENSTANCE"",""SUPPORTER"",""DEVICE""]",0.0000895,1,low_a_low_p,,,,,,,,,,,,
,,,,,survey-text,63,242458,0.0-5.0-2.16,21,3,2023-03-10 00:25:55,a36334bc01f1c5e0abd0a9896a30f3f3,,"Mozilla/5.0 (Macintosh; Intel Mac OS X 10_15_7) AppleWebKit/605.1.15 (KHTML, like Gecko) Version/16.3 Safari/605.1.15",Macintosh,Safari,16.3,OS X,10_15_7,41962,,,attention,14722,,,,,,tails,,,,,0,,,,,,,,,,,
,,,,,html-keyboard-response,64,243465,0.0-5.0-0.17,21,3,2023-03-10 00:25:55,a36334bc01f1c5e0abd0a9896a30f3f3,,"Mozilla/5.0 (Macintosh; Intel Mac OS X 10_15_7) AppleWebKit/605.1.15 (KHTML, like Gecko) Version/16.3 Safari/605.1.15",Macintosh,Safari,16.3,OS X,10_15_7,41962,null,null,fixation,14722,,<p style='font-size: 48px;'>+</p>,,,,,,,,,,,,,,,,,,,,
,,,,,connector,65,250130,0.0-5.0-1.17,21,3,2023-03-10 00:25:55,a36334bc01f1c5e0abd0a9896a30f3f3,,"Mozilla/5.0 (Macintosh; Intel Mac OS X 10_15_7) AppleWebKit/605.1.15 (KHTML, like Gecko) Version/16.3 Safari/605.1.15",Macintosh,Safari,16.3,OS X,10_15_7,41962,6661,"[""MICROWAVE"",""INGREDIENTS""]",experiment,14722,,PALATABLE,"[""MICROWAVE"",""INGREDIENTS"",""GYMNASTICS""]",0,flavorful-ingredients,palatable,"[""WENT"",""INCENTIVE"",""FLAVORFUL"",""CIRCUMSTANCE"",""EXPLODE"",""MICROWAVE"",""GYMNASTICS"",""PRINCIPLE"",""MISSION"",""RENTAL"",""THING"",""PERFECTION"",""COUNTRYSIDE"",""INGREDIENTS"",""RESEMBLE"",""WILDLIFE"",""RAG"",""HOMELAND"",""SPHINX"",""TICKLE""]",0.00017849,2,low_a_high_p,,,,,,,,,,,,
,,,,,survey-text,66,250140,0.0-5.0-2.17,21,3,2023-03-10 00:25:55,a36334bc01f1c5e0abd0a9896a30f3f3,,"Mozilla/5.0 (Macintosh; Intel Mac OS X 10_15_7) AppleWebKit/605.1.15 (KHTML, like Gecko) Version/16.3 Safari/605.1.15",Macintosh,Safari,16.3,OS X,10_15_7,41962,,,attention,14722,,,,,,palatable,,,,,0,,,,,,,,,,,
,,,,,html-keyboard-response,67,251144,0.0-5.0-0.18,21,3,2023-03-10 00:25:55,a36334bc01f1c5e0abd0a9896a30f3f3,,"Mozilla/5.0 (Macintosh; Intel Mac OS X 10_15_7) AppleWebKit/605.1.15 (KHTML, like Gecko) Version/16.3 Safari/605.1.15",Macintosh,Safari,16.3,OS X,10_15_7,41962,null,null,fixation,14722,,<p style='font-size: 48px;'>+</p>,,,,,,,,,,,,,,,,,,,,
,,,,,connector,68,264662,0.0-5.0-1.18,21,3,2023-03-10 00:25:55,a36334bc01f1c5e0abd0a9896a30f3f3,,"Mozilla/5.0 (Macintosh; Intel Mac OS X 10_15_7) AppleWebKit/605.1.15 (KHTML, like Gecko) Version/16.3 Safari/605.1.15",Macintosh,Safari,16.3,OS X,10_15_7,41962,13513,"[""APPEARANCE"",""CANTEEN""]",experiment,14722,,GLOOMY,"[""APPEARANCE"",""OSTRACIZE"",""CANTEEN""]",0,pariah-ostracize,gloomy,"[""LIVESTOCK"",""COMPLETE"",""HARMONY"",""CIPHER"",""ORIGINATE"",""HABITAT"",""COUSIN"",""BICEP"",""THRIVE"",""STOCKING"",""CANTEEN"",""LEAVE"",""BASIC"",""SKATE"",""OSTRACIZE"",""LASAGNA"",""WITHIN"",""PARIAH"",""APPEARANCE"",""CONTEMPORARY""]",0.0000883,2,low_a_low_p,,,,,,,,,,,,
,,,,,survey-text,69,264673,0.0-5.0-2.18,21,3,2023-03-10 00:25:55,a36334bc01f1c5e0abd0a9896a30f3f3,,"Mozilla/5.0 (Macintosh; Intel Mac OS X 10_15_7) AppleWebKit/605.1.15 (KHTML, like Gecko) Version/16.3 Safari/605.1.15",Macintosh,Safari,16.3,OS X,10_15_7,41962,,,attention,14722,,,,,,gloomy,,,,,0,,,,,,,,,,,
,,,,,html-keyboard-response,70,265676,0.0-5.0-0.19,21,3,2023-03-10 00:25:55,a36334bc01f1c5e0abd0a9896a30f3f3,,"Mozilla/5.0 (Macintosh; Intel Mac OS X 10_15_7) AppleWebKit/605.1.15 (KHTML, like Gecko) Version/16.3 Safari/605.1.15",Macintosh,Safari,16.3,OS X,10_15_7,41962,null,null,fixation,14722,,<p style='font-size: 48px;'>+</p>,,,,,,,,,,,,,,,,,,,,
,,,,,connector,71,273929,0.0-5.0-1.19,21,3,2023-03-10 00:25:55,a36334bc01f1c5e0abd0a9896a30f3f3,,"Mozilla/5.0 (Macintosh; Intel Mac OS X 10_15_7) AppleWebKit/605.1.15 (KHTML, like Gecko) Version/16.3 Safari/605.1.15",Macintosh,Safari,16.3,OS X,10_15_7,41962,8247,"[""GLAMOROUS"",""ANTICIPATION""]",experiment,14722,,UNIVERSITY,"[""GLAMOROUS"",""ANTICIPATION""]",0,tax-tuition,university,"[""OPPOSITE"",""GENTLEMAN"",""ASLEEP"",""MANUAL"",""DECEIT"",""ANTICIPATION"",""GLAMOROUS"",""SHORTS"",""QUID"",""ASTROLOGY"",""PYRAMIDS"",""SQUID"",""AMPHIBIAN"",""FOOTSTOOL"",""TUNES"",""CRINGE"",""HUNCH"",""TAX"",""TUITION"",""BELONGINGS""]",0.0000946,86,high_a_low_p,,,,,,,,,,,,
,,,,,survey-text,72,278288,0.0-5.0-2.19,21,3,2023-03-10 00:25:55,a36334bc01f1c5e0abd0a9896a30f3f3,,"Mozilla/5.0 (Macintosh; Intel Mac OS X 10_15_7) AppleWebKit/605.1.15 (KHTML, like Gecko) Version/16.3 Safari/605.1.15",Macintosh,Safari,16.3,OS X,10_15_7,41962,4349,university,attention,14722,,,,,,university,,,,,1,true,,,,,,,,,,
,,,,,html-keyboard-response,73,279291,0.0-5.0-0.20,21,3,2023-03-10 00:25:55,a36334bc01f1c5e0abd0a9896a30f3f3,,"Mozilla/5.0 (Macintosh; Intel Mac OS X 10_15_7) AppleWebKit/605.1.15 (KHTML, like Gecko) Version/16.3 Safari/605.1.15",Macintosh,Safari,16.3,OS X,10_15_7,41962,null,null,fixation,14722,,<p style='font-size: 48px;'>+</p>,,,,,,,,,,,,,,,,,,,,
,,,,,connector,74,287376,0.0-5.0-1.20,21,3,2023-03-10 00:25:55,a36334bc01f1c5e0abd0a9896a30f3f3,,"Mozilla/5.0 (Macintosh; Intel Mac OS X 10_15_7) AppleWebKit/605.1.15 (KHTML, like Gecko) Version/16.3 Safari/605.1.15",Macintosh,Safari,16.3,OS X,10_15_7,41962,8081,"[""ELATED"",""VIVACIOUS""]",experiment,14722,,ENTHUSIASTIC,"[""ELATED"",""VIVACIOUS""]",1,elated-vivacious,enthusiastic,"[""COMFORTER"",""VIVACIOUS"",""SEWER"",""FORTY"",""EXOSKELETON"",""ADULTERY"",""NEED"",""OSMOSIS"",""ELATED"",""WORLDWIDE"",""KNEW"",""CONTAMINATE"",""PANEL"",""DECK"",""VIOLATION"",""DOTS"",""SUCCESSFUL"",""SURROUNDING"",""GLITCH"",""LORD""]",0.000196923,14,high_a_high_p,,,,,,,,,,,,
,,,,,survey-text,75,287386,0.0-5.0-2.20,21,3,2023-03-10 00:25:55,a36334bc01f1c5e0abd0a9896a30f3f3,,"Mozilla/5.0 (Macintosh; Intel Mac OS X 10_15_7) AppleWebKit/605.1.15 (KHTML, like Gecko) Version/16.3 Safari/605.1.15",Macintosh,Safari,16.3,OS X,10_15_7,41962,,,attention,14722,,,,,,enthusiastic,,,,,0,,,,,,,,,,,
,,,,,html-keyboard-response,76,288390,0.0-5.0-0.21,21,3,2023-03-10 00:25:55,a36334bc01f1c5e0abd0a9896a30f3f3,,"Mozilla/5.0 (Macintosh; Intel Mac OS X 10_15_7) AppleWebKit/605.1.15 (KHTML, like Gecko) Version/16.3 Safari/605.1.15",Macintosh,Safari,16.3,OS X,10_15_7,41962,null,null,fixation,14722,,<p style='font-size: 48px;'>+</p>,,,,,,,,,,,,,,,,,,,,
,,,,,connector,77,296037,0.0-5.0-1.21,21,3,2023-03-10 00:25:55,a36334bc01f1c5e0abd0a9896a30f3f3,,"Mozilla/5.0 (Macintosh; Intel Mac OS X 10_15_7) AppleWebKit/605.1.15 (KHTML, like Gecko) Version/16.3 Safari/605.1.15",Macintosh,Safari,16.3,OS X,10_15_7,41962,7641,"[""NECTARINE"",""SPECTACLE""]",experiment,14722,,PAPAYA,"[""NECTARINE"",""SPECTACLE""]",0,carrots-nectarine,papaya,"[""SALIENT"",""CARROTS"",""CARPENTRY"",""SECRETS"",""SCAM"",""BUSINESS"",""SONGS"",""SECRETARY"",""SOUR"",""VOWEL"",""INFLATION"",""CLAPPING"",""BLIMP"",""DWELLING"",""NECTARINE"",""FREEZE"",""ANT"",""TREASON"",""SPECTACLE"",""ZONE""]",0.000172939,1,low_a_high_p,,,,,,,,,,,,
,,,,,survey-text,78,296047,0.0-5.0-2.21,21,3,2023-03-10 00:25:55,a36334bc01f1c5e0abd0a9896a30f3f3,,"Mozilla/5.0 (Macintosh; Intel Mac OS X 10_15_7) AppleWebKit/605.1.15 (KHTML, like Gecko) Version/16.3 Safari/605.1.15",Macintosh,Safari,16.3,OS X,10_15_7,41962,,,attention,14722,,,,,,papaya,,,,,0,,,,,,,,,,,
,,,,,html-keyboard-response,79,297051,0.0-5.0-0.22,21,3,2023-03-10 00:25:55,a36334bc01f1c5e0abd0a9896a30f3f3,,"Mozilla/5.0 (Macintosh; Intel Mac OS X 10_15_7) AppleWebKit/605.1.15 (KHTML, like Gecko) Version/16.3 Safari/605.1.15",Macintosh,Safari,16.3,OS X,10_15_7,41962,null,null,fixation,14722,,<p style='font-size: 48px;'>+</p>,,,,,,,,,,,,,,,,,,,,
,,,,,connector,80,300784,0.0-5.0-1.22,21,3,2023-03-10 00:25:55,a36334bc01f1c5e0abd0a9896a30f3f3,,"Mozilla/5.0 (Macintosh; Intel Mac OS X 10_15_7) AppleWebKit/605.1.15 (KHTML, like Gecko) Version/16.3 Safari/605.1.15",Macintosh,Safari,16.3,OS X,10_15_7,41962,3727,"[""KNOWING"",""WITTY""]",experiment,14722,,INTELLIGENCE,"[""KNOWING"",""WITTY""]",0,knowing-thinker,intelligence,"[""IDOL"",""KNOWING"",""TERMINAL"",""WITTY"",""DISTANT"",""SUPERMARKET"",""THINKER"",""CROWD"",""FORTHRIGHT"",""JOURNEY"",""CAPTURE"",""FAITHFUL"",""GEISHA"",""GOOEY"",""SEEN"",""STEALTH"",""SENSUOUS"",""PURSE"",""MAKEUP"",""TABLES""]",0.000167179,53,high_a_high_p,,,,,,,,,,,,
,,,,,survey-text,81,300795,0.0-5.0-2.22,21,3,2023-03-10 00:25:55,a36334bc01f1c5e0abd0a9896a30f3f3,,"Mozilla/5.0 (Macintosh; Intel Mac OS X 10_15_7) AppleWebKit/605.1.15 (KHTML, like Gecko) Version/16.3 Safari/605.1.15",Macintosh,Safari,16.3,OS X,10_15_7,41962,,,attention,14722,,,,,,intelligence,,,,,0,,,,,,,,,,,
,,,,,html-keyboard-response,82,301798,0.0-5.0-0.23,21,3,2023-03-10 00:25:55,a36334bc01f1c5e0abd0a9896a30f3f3,,"Mozilla/5.0 (Macintosh; Intel Mac OS X 10_15_7) AppleWebKit/605.1.15 (KHTML, like Gecko) Version/16.3 Safari/605.1.15",Macintosh,Safari,16.3,OS X,10_15_7,41962,null,null,fixation,14722,,<p style='font-size: 48px;'>+</p>,,,,,,,,,,,,,,,,,,,,
,,,,,connector,83,309563,0.0-5.0-1.23,21,3,2023-03-10 00:25:55,a36334bc01f1c5e0abd0a9896a30f3f3,,"Mozilla/5.0 (Macintosh; Intel Mac OS X 10_15_7) AppleWebKit/605.1.15 (KHTML, like Gecko) Version/16.3 Safari/605.1.15",Macintosh,Safari,16.3,OS X,10_15_7,41962,7758,"[""VINES"",""PLANT""]",experiment,14722,,IVY,"[""VINES"",""MITTENS"",""PLANT""]",1,vines-plant,ivy,"[""OMINOUS"",""FORGIVE"",""UNTRAINED"",""MITTENS"",""REHEARSAL"",""UNRIPE"",""THUMP"",""PLANT"",""TENTATIVE"",""CANINE"",""REVEAL"",""DEMI"",""VINES"",""SLOPE"",""NADA"",""CALCIUM"",""MISCHIEVOUS"",""OUTSIDER"",""QUEEN"",""BLANKETS""]",0.000152776,71,high_a_high_p,,,,,,,,,,,,
,,,,,survey-text,84,309572,0.0-5.0-2.23,21,3,2023-03-10 00:25:55,a36334bc01f1c5e0abd0a9896a30f3f3,,"Mozilla/5.0 (Macintosh; Intel Mac OS X 10_15_7) AppleWebKit/605.1.15 (KHTML, like Gecko) Version/16.3 Safari/605.1.15",Macintosh,Safari,16.3,OS X,10_15_7,41962,,,attention,14722,,,,,,ivy,,,,,0,,,,,,,,,,,
,,,,,html-keyboard-response,85,310576,0.0-5.0-0.24,21,3,2023-03-10 00:25:55,a36334bc01f1c5e0abd0a9896a30f3f3,,"Mozilla/5.0 (Macintosh; Intel Mac OS X 10_15_7) AppleWebKit/605.1.15 (KHTML, like Gecko) Version/16.3 Safari/605.1.15",Macintosh,Safari,16.3,OS X,10_15_7,41962,null,null,fixation,14722,,<p style='font-size: 48px;'>+</p>,,,,,,,,,,,,,,,,,,,,
,,,,,connector,86,324281,0.0-5.0-1.24,21,3,2023-03-10 00:25:55,a36334bc01f1c5e0abd0a9896a30f3f3,,"Mozilla/5.0 (Macintosh; Intel Mac OS X 10_15_7) AppleWebKit/605.1.15 (KHTML, like Gecko) Version/16.3 Safari/605.1.15",Macintosh,Safari,16.3,OS X,10_15_7,41962,13693,"[""GRATUITY"",""PAID""]",experiment,14722,,PERCENT,"[""GRATUITY"",""PAID""]",1,paid-gratuity,percent,"[""PORTRAY"",""BEARS"",""HIKING"",""OBSERVANT"",""PAID"",""DECEPTION"",""SOW"",""APPREHENSIVE"",""ASSET"",""EARLY"",""HIPSTER"",""TRIANGLE"",""GRATUITY"",""FLATTERING"",""SUPERB"",""SLINGSHOT"",""VIBRATE"",""RELATIVE"",""PAINTING"",""ANTENNA""]",0.0000967,1,low_a_low_p,,,,,,,,,,,,
,,,,,survey-text,87,324293,0.0-5.0-2.24,21,3,2023-03-10 00:25:55,a36334bc01f1c5e0abd0a9896a30f3f3,,"Mozilla/5.0 (Macintosh; Intel Mac OS X 10_15_7) AppleWebKit/605.1.15 (KHTML, like Gecko) Version/16.3 Safari/605.1.15",Macintosh,Safari,16.3,OS X,10_15_7,41962,,,attention,14722,,,,,,percent,,,,,0,,,,,,,,,,,
,,,,,html-keyboard-response,88,325297,0.0-5.0-0.25,21,3,2023-03-10 00:25:55,a36334bc01f1c5e0abd0a9896a30f3f3,,"Mozilla/5.0 (Macintosh; Intel Mac OS X 10_15_7) AppleWebKit/605.1.15 (KHTML, like Gecko) Version/16.3 Safari/605.1.15",Macintosh,Safari,16.3,OS X,10_15_7,41962,null,null,fixation,14722,,<p style='font-size: 48px;'>+</p>,,,,,,,,,,,,,,,,,,,,
,,,,,connector,89,333466,0.0-5.0-1.25,21,3,2023-03-10 00:25:55,a36334bc01f1c5e0abd0a9896a30f3f3,,"Mozilla/5.0 (Macintosh; Intel Mac OS X 10_15_7) AppleWebKit/605.1.15 (KHTML, like Gecko) Version/16.3 Safari/605.1.15",Macintosh,Safari,16.3,OS X,10_15_7,41962,8163,"[""SURPASS"",""OVERCOME""]",experiment,14722,,DONE,"[""SURPASS"",""OVERCOME""]",1,overcome-surpass,done,"[""TRAGIC"",""ANEMIA"",""DISPUTE"",""DREAMY"",""COOPERATIVE"",""SPIKE"",""RECEPTION"",""SURPASS"",""EIGHT"",""FEARFUL"",""LOSING"",""OVERCOME"",""INTEGRITY"",""FRY"",""LIGHTING"",""PAGEANT"",""DOLLAR"",""PASSIVE"",""ELECTRICAL"",""SHRUBS""]",0.0000844,39,high_a_low_p,,,,,,,,,,,,
,,,,,survey-text,90,333477,0.0-5.0-2.25,21,3,2023-03-10 00:25:55,a36334bc01f1c5e0abd0a9896a30f3f3,,"Mozilla/5.0 (Macintosh; Intel Mac OS X 10_15_7) AppleWebKit/605.1.15 (KHTML, like Gecko) Version/16.3 Safari/605.1.15",Macintosh,Safari,16.3,OS X,10_15_7,41962,,,attention,14722,,,,,,done,,,,,0,,,,,,,,,,,
,,,,,html-keyboard-response,91,334481,0.0-5.0-0.26,21,3,2023-03-10 00:25:55,a36334bc01f1c5e0abd0a9896a30f3f3,,"Mozilla/5.0 (Macintosh; Intel Mac OS X 10_15_7) AppleWebKit/605.1.15 (KHTML, like Gecko) Version/16.3 Safari/605.1.15",Macintosh,Safari,16.3,OS X,10_15_7,41962,null,null,fixation,14722,,<p style='font-size: 48px;'>+</p>,,,,,,,,,,,,,,,,,,,,
,,,,,connector,92,342781,0.0-5.0-1.26,21,3,2023-03-10 00:25:55,a36334bc01f1c5e0abd0a9896a30f3f3,,"Mozilla/5.0 (Macintosh; Intel Mac OS X 10_15_7) AppleWebKit/605.1.15 (KHTML, like Gecko) Version/16.3 Safari/605.1.15",Macintosh,Safari,16.3,OS X,10_15_7,41962,8297,"[""ELEGANCE"",""CENTERED""]",experiment,14722,,GIRL,"[""ELEGANCE"",""CENTERED""]",0,pram-diapers,girl,"[""ORDERED"",""LENSES"",""SILL"",""ASPECT"",""CANARY"",""PRAM"",""DISTURB"",""LOUSE"",""ELEGANCE"",""WISHFUL"",""SLUSHY"",""GULP"",""WIRELESS"",""DIAPERS"",""STEERING"",""CENTERED"",""TEXTURE"",""ROUGE"",""ANYWAY"",""CARRYING""]",0.0000859,61,high_a_low_p,,,,,,,,,,,,
,,,,,survey-text,93,342793,0.0-5.0-2.26,21,3,2023-03-10 00:25:55,a36334bc01f1c5e0abd0a9896a30f3f3,,"Mozilla/5.0 (Macintosh; Intel Mac OS X 10_15_7) AppleWebKit/605.1.15 (KHTML, like Gecko) Version/16.3 Safari/605.1.15",Macintosh,Safari,16.3,OS X,10_15_7,41962,,,attention,14722,,,,,,girl,,,,,0,,,,,,,,,,,
,,,,,html-keyboard-response,94,343797,0.0-5.0-0.27,21,3,2023-03-10 00:25:55,a36334bc01f1c5e0abd0a9896a30f3f3,,"Mozilla/5.0 (Macintosh; Intel Mac OS X 10_15_7) AppleWebKit/605.1.15 (KHTML, like Gecko) Version/16.3 Safari/605.1.15",Macintosh,Safari,16.3,OS X,10_15_7,41962,null,null,fixation,14722,,<p style='font-size: 48px;'>+</p>,,,,,,,,,,,,,,,,,,,,
,,,,,connector,95,351725,0.0-5.0-1.27,21,3,2023-03-10 00:25:55,a36334bc01f1c5e0abd0a9896a30f3f3,,"Mozilla/5.0 (Macintosh; Intel Mac OS X 10_15_7) AppleWebKit/605.1.15 (KHTML, like Gecko) Version/16.3 Safari/605.1.15",Macintosh,Safari,16.3,OS X,10_15_7,41962,7923,"[""COW"",""DAIRY""]",experiment,14722,,UDDER,"[""COW"",""DAIRY""]",1,cow-dairy,udder,"[""DAIRY"",""INSUFFICIENT"",""BIKINI"",""DEPARTMENT"",""NATIONAL"",""BUNCH"",""MANNERISM"",""GEEK"",""HEATING"",""SPYING"",""HARPOON"",""COW"",""CRUSHED"",""SAMPLE"",""FIELD"",""MEANDER"",""DEPRESSION"",""BRIMSTONE"",""SAFARI"",""DREAD""]",0.000207517,19,high_a_high_p,,,,,,,,,,,,
,,,,,survey-text,96,351735,0.0-5.0-2.27,21,3,2023-03-10 00:25:55,a36334bc01f1c5e0abd0a9896a30f3f3,,"Mozilla/5.0 (Macintosh; Intel Mac OS X 10_15_7) AppleWebKit/605.1.15 (KHTML, like Gecko) Version/16.3 Safari/605.1.15",Macintosh,Safari,16.3,OS X,10_15_7,41962,,,attention,14722,,,,,,udder,,,,,0,,,,,,,,,,,
,,,,,html-keyboard-response,97,352740,0.0-5.0-0.28,21,3,2023-03-10 00:25:55,a36334bc01f1c5e0abd0a9896a30f3f3,,"Mozilla/5.0 (Macintosh; Intel Mac OS X 10_15_7) AppleWebKit/605.1.15 (KHTML, like Gecko) Version/16.3 Safari/605.1.15",Macintosh,Safari,16.3,OS X,10_15_7,41962,null,null,fixation,14722,,<p style='font-size: 48px;'>+</p>,,,,,,,,,,,,,,,,,,,,
,,,,,connector,98,359285,0.0-5.0-1.28,21,3,2023-03-10 00:25:55,a36334bc01f1c5e0abd0a9896a30f3f3,,"Mozilla/5.0 (Macintosh; Intel Mac OS X 10_15_7) AppleWebKit/605.1.15 (KHTML, like Gecko) Version/16.3 Safari/605.1.15",Macintosh,Safari,16.3,OS X,10_15_7,41962,6541,"[""GLISTEN"",""PRISM""]",experiment,14722,,GLASS,"[""GLISTEN"",""PRISM""]",0,prism-aura,glass,"[""SUCCEED"",""HOOT"",""EXTINCTION"",""REGION"",""NOG"",""AURA"",""GLISTEN"",""WASHCLOTH"",""COMPROMISE"",""PRISM"",""SUSPENSE"",""EXCEED"",""APACHE"",""DOWNSTREAM"",""RODEO"",""DARLING"",""PHENOMENON"",""EXPIRE"",""UNTRUE"",""PREGNANCY""]",0.0000895,111,high_a_low_p,,,,,,,,,,,,
,,,,,survey-text,99,359293,0.0-5.0-2.28,21,3,2023-03-10 00:25:55,a36334bc01f1c5e0abd0a9896a30f3f3,,"Mozilla/5.0 (Macintosh; Intel Mac OS X 10_15_7) AppleWebKit/605.1.15 (KHTML, like Gecko) Version/16.3 Safari/605.1.15",Macintosh,Safari,16.3,OS X,10_15_7,41962,,,attention,14722,,,,,,glass,,,,,0,,,,,,,,,,,
,,,,,html-keyboard-response,100,360296,0.0-5.0-0.29,21,3,2023-03-10 00:25:55,a36334bc01f1c5e0abd0a9896a30f3f3,,"Mozilla/5.0 (Macintosh; Intel Mac OS X 10_15_7) AppleWebKit/605.1.15 (KHTML, like Gecko) Version/16.3 Safari/605.1.15",Macintosh,Safari,16.3,OS X,10_15_7,41962,null,null,fixation,14722,,<p style='font-size: 48px;'>+</p>,,,,,,,,,,,,,,,,,,,,
,,,,,connector,101,371690,0.0-5.0-1.29,21,3,2023-03-10 00:25:55,a36334bc01f1c5e0abd0a9896a30f3f3,,"Mozilla/5.0 (Macintosh; Intel Mac OS X 10_15_7) AppleWebKit/605.1.15 (KHTML, like Gecko) Version/16.3 Safari/605.1.15",Macintosh,Safari,16.3,OS X,10_15_7,41962,11390,"[""BREATHING"",""PERSON""]",experiment,14722,,TOOTHBRUSH,"[""BREATHING"",""ANATOMY"",""PERSON""]",0,stickleback-piranha,toothbrush,"[""PANCAKES"",""IMITATE"",""BREATHING"",""POND"",""WHEELCHAIR"",""ENDEAVOR"",""HOMAGE"",""BREAKFAST"",""TEACHER"",""PICTURESQUE"",""RESOLUTION"",""TESTIFY"",""CLARITY"",""ANATOMY"",""DRESSY"",""STICKLEBACK"",""PIRANHA"",""PERSON"",""ATOM"",""CROWN""]",0.0000908,3,low_a_low_p,,,,,,,,,,,,
,,,,,survey-text,102,375894,0.0-5.0-2.29,21,3,2023-03-10 00:25:55,a36334bc01f1c5e0abd0a9896a30f3f3,,"Mozilla/5.0 (Macintosh; Intel Mac OS X 10_15_7) AppleWebKit/605.1.15 (KHTML, like Gecko) Version/16.3 Safari/605.1.15",Macintosh,Safari,16.3,OS X,10_15_7,41962,4194,toothbrush,attention,14722,,,,,,toothbrush,,,,,1,true,,,,,,,,,,
,,,,,html-keyboard-response,103,376897,0.0-5.0-0.30,21,3,2023-03-10 00:25:55,a36334bc01f1c5e0abd0a9896a30f3f3,,"Mozilla/5.0 (Macintosh; Intel Mac OS X 10_15_7) AppleWebKit/605.1.15 (KHTML, like Gecko) Version/16.3 Safari/605.1.15",Macintosh,Safari,16.3,OS X,10_15_7,41962,null,null,fixation,14722,,<p style='font-size: 48px;'>+</p>,,,,,,,,,,,,,,,,,,,,
,,,,,connector,104,386373,0.0-5.0-1.30,21,3,2023-03-10 00:25:55,a36334bc01f1c5e0abd0a9896a30f3f3,,"Mozilla/5.0 (Macintosh; Intel Mac OS X 10_15_7) AppleWebKit/605.1.15 (KHTML, like Gecko) Version/16.3 Safari/605.1.15",Macintosh,Safari,16.3,OS X,10_15_7,41962,9469,"[""TIRING"",""EXALT""]",experiment,14722,,MARATHON,"[""TIRING"",""EXALT""]",0,weary-tiring,marathon,"[""POOF"",""KNAPSACK"",""PASSAGE"",""INVESTIGATE"",""WEARY"",""CONGRESS"",""WHEREVER"",""EXALT"",""ASTOUNDING"",""GUT"",""VET"",""TOWARD"",""SNOOZE"",""SELECTIVE"",""RETROSPECT"",""SURGEON"",""SUBORDINATE"",""TIRING"",""CONFIDENTIAL"",""BISCUIT""]",0.000091,4,low_a_low_p,,,,,,,,,,,,
,,,,,survey-text,105,386383,0.0-5.0-2.30,21,3,2023-03-10 00:25:55,a36334bc01f1c5e0abd0a9896a30f3f3,,"Mozilla/5.0 (Macintosh; Intel Mac OS X 10_15_7) AppleWebKit/605.1.15 (KHTML, like Gecko) Version/16.3 Safari/605.1.15",Macintosh,Safari,16.3,OS X,10_15_7,41962,,,attention,14722,,,,,,marathon,,,,,0,,,,,,,,,,,
,,,,,html-keyboard-response,106,387392,0.0-5.0-0.31,21,3,2023-03-10 00:25:55,a36334bc01f1c5e0abd0a9896a30f3f3,,"Mozilla/5.0 (Macintosh; Intel Mac OS X 10_15_7) AppleWebKit/605.1.15 (KHTML, like Gecko) Version/16.3 Safari/605.1.15",Macintosh,Safari,16.3,OS X,10_15_7,41962,null,null,fixation,14722,,<p style='font-size: 48px;'>+</p>,,,,,,,,,,,,,,,,,,,,
,,,,,connector,107,401277,0.0-5.0-1.31,21,3,2023-03-10 00:25:55,a36334bc01f1c5e0abd0a9896a30f3f3,,"Mozilla/5.0 (Macintosh; Intel Mac OS X 10_15_7) AppleWebKit/605.1.15 (KHTML, like Gecko) Version/16.3 Safari/605.1.15",Macintosh,Safari,16.3,OS X,10_15_7,41962,13879,"[""ENDLESS"",""EVER""]",experiment,14722,,PERPETUAL,"[""ENDLESS"",""TELEGRAPH"",""EVER""]",1,ever-endless,perpetual,"[""HOP"",""ACCESSORY"",""SCIENTIFIC"",""CONQUISTADOR"",""LOAF"",""MAIDEN"",""LAYOUT"",""EVER"",""STEADY"",""ENDLESS"",""STERILE"",""MILLION"",""WRONG"",""GOO"",""TELEGRAPH"",""IMPROPER"",""PROSPERITY"",""MARAUDER"",""RUBRIC"",""RESTAURANT""]",0.000185175,9,low_a_high_p,,,,,,,,,,,,
,,,,,survey-text,108,401291,0.0-5.0-2.31,21,3,2023-03-10 00:25:55,a36334bc01f1c5e0abd0a9896a30f3f3,,"Mozilla/5.0 (Macintosh; Intel Mac OS X 10_15_7) AppleWebKit/605.1.15 (KHTML, like Gecko) Version/16.3 Safari/605.1.15",Macintosh,Safari,16.3,OS X,10_15_7,41962,,,attention,14722,,,,,,perpetual,,,,,0,,,,,,,,,,,
,,,,,html-keyboard-response,109,402295,0.0-5.0-0.32,21,3,2023-03-10 00:25:55,a36334bc01f1c5e0abd0a9896a30f3f3,,"Mozilla/5.0 (Macintosh; Intel Mac OS X 10_15_7) AppleWebKit/605.1.15 (KHTML, like Gecko) Version/16.3 Safari/605.1.15",Macintosh,Safari,16.3,OS X,10_15_7,41962,null,null,fixation,14722,,<p style='font-size: 48px;'>+</p>,,,,,,,,,,,,,,,,,,,,
,,,,,connector,110,412739,0.0-5.0-1.32,21,3,2023-03-10 00:25:55,a36334bc01f1c5e0abd0a9896a30f3f3,,"Mozilla/5.0 (Macintosh; Intel Mac OS X 10_15_7) AppleWebKit/605.1.15 (KHTML, like Gecko) Version/16.3 Safari/605.1.15",Macintosh,Safari,16.3,OS X,10_15_7,41962,10438,"[""PAYCHECK"",""LIMIT""]",experiment,14722,,LEND,"[""PAYCHECK"",""LIMIT""]",0,grant-donation,lend,"[""MELTING"",""ASSURED"",""PESTO"",""SOLID"",""ROUGHLY"",""LIMIT"",""PAYCHECK"",""CLOSURE"",""JAGUAR"",""DISTINCT"",""CONTAIN"",""LEGISLATURE"",""GENEALOGY"",""BANANA"",""GRANT"",""ENJOYMENT"",""EGGS"",""DONATION"",""UNAVOIDABLE"",""CHOOSE""]",0.000176651,3,low_a_high_p,,,,,,,,,,,,
,,,,,survey-text,111,412750,0.0-5.0-2.32,21,3,2023-03-10 00:25:55,a36334bc01f1c5e0abd0a9896a30f3f3,,"Mozilla/5.0 (Macintosh; Intel Mac OS X 10_15_7) AppleWebKit/605.1.15 (KHTML, like Gecko) Version/16.3 Safari/605.1.15",Macintosh,Safari,16.3,OS X,10_15_7,41962,,,attention,14722,,,,,,lend,,,,,0,,,,,,,,,,,
,,,,,html-keyboard-response,112,413754,0.0-5.0-0.33,21,3,2023-03-10 00:25:55,a36334bc01f1c5e0abd0a9896a30f3f3,,"Mozilla/5.0 (Macintosh; Intel Mac OS X 10_15_7) AppleWebKit/605.1.15 (KHTML, like Gecko) Version/16.3 Safari/605.1.15",Macintosh,Safari,16.3,OS X,10_15_7,41962,null,null,fixation,14722,,<p style='font-size: 48px;'>+</p>,,,,,,,,,,,,,,,,,,,,
,,,,,connector,113,429361,0.0-5.0-1.33,21,3,2023-03-10 00:25:55,a36334bc01f1c5e0abd0a9896a30f3f3,,"Mozilla/5.0 (Macintosh; Intel Mac OS X 10_15_7) AppleWebKit/605.1.15 (KHTML, like Gecko) Version/16.3 Safari/605.1.15",Macintosh,Safari,16.3,OS X,10_15_7,41962,15599,"[""UPTIGHT"",""HAPPENING""]",experiment,14722,,ABODE,"[""UPTIGHT"",""HAPPENING""]",0,apartment-domestic,abode,"[""STRUGGLE"",""PUN"",""DYNAMITE"",""GHOST"",""DOWNSTAIRS"",""CROWBAR"",""CONSTELLATION"",""TRUMPET"",""BLADDER"",""BITS"",""APARTMENT"",""ACTOR"",""OBSESSION"",""HAPPENING"",""UPTIGHT"",""METALLIC"",""DOMESTIC"",""RIVALRY"",""FORMER"",""KHAKI""]",0.000193392,12,low_a_high_p,,,,,,,,,,,,
,,,,,survey-text,114,429373,0.0-5.0-2.33,21,3,2023-03-10 00:25:55,a36334bc01f1c5e0abd0a9896a30f3f3,,"Mozilla/5.0 (Macintosh; Intel Mac OS X 10_15_7) AppleWebKit/605.1.15 (KHTML, like Gecko) Version/16.3 Safari/605.1.15",Macintosh,Safari,16.3,OS X,10_15_7,41962,,,attention,14722,,,,,,abode,,,,,0,,,,,,,,,,,
,,,,,html-keyboard-response,115,430378,0.0-5.0-0.34,21,3,2023-03-10 00:25:55,a36334bc01f1c5e0abd0a9896a30f3f3,,"Mozilla/5.0 (Macintosh; Intel Mac OS X 10_15_7) AppleWebKit/605.1.15 (KHTML, like Gecko) Version/16.3 Safari/605.1.15",Macintosh,Safari,16.3,OS X,10_15_7,41962,null,null,fixation,14722,,<p style='font-size: 48px;'>+</p>,,,,,,,,,,,,,,,,,,,,
,,,,,connector,116,436833,0.0-5.0-1.34,21,3,2023-03-10 00:25:55,a36334bc01f1c5e0abd0a9896a30f3f3,,"Mozilla/5.0 (Macintosh; Intel Mac OS X 10_15_7) AppleWebKit/605.1.15 (KHTML, like Gecko) Version/16.3 Safari/605.1.15",Macintosh,Safari,16.3,OS X,10_15_7,41962,6449,"[""SEMESTER"",""FACULTY""]",experiment,14722,,SCHOOL,"[""SEMESTER"",""FACULTY""]",1,semester-faculty,school,"[""FIX"",""CYNIC"",""GRAB"",""ANEW"",""ONCE"",""SWANKY"",""TOAD"",""YOU"",""IMPRISON"",""CHILDLESS"",""ABORIGINE"",""STANDARD"",""LEARNER"",""COMET"",""SEMESTER"",""FACULTY"",""PEBBLE"",""PRANKSTER"",""MAGNIFY"",""EARNINGS""]",0.000190946,367,high_a_high_p,,,,,,,,,,,,
,,,,,survey-text,117,436845,0.0-5.0-2.34,21,3,2023-03-10 00:25:55,a36334bc01f1c5e0abd0a9896a30f3f3,,"Mozilla/5.0 (Macintosh; Intel Mac OS X 10_15_7) AppleWebKit/605.1.15 (KHTML, like Gecko) Version/16.3 Safari/605.1.15",Macintosh,Safari,16.3,OS X,10_15_7,41962,,,attention,14722,,,,,,school,,,,,0,,,,,,,,,,,
,,,,,html-keyboard-response,118,437849,0.0-5.0-0.35,21,3,2023-03-10 00:25:55,a36334bc01f1c5e0abd0a9896a30f3f3,,"Mozilla/5.0 (Macintosh; Intel Mac OS X 10_15_7) AppleWebKit/605.1.15 (KHTML, like Gecko) Version/16.3 Safari/605.1.15",Macintosh,Safari,16.3,OS X,10_15_7,41962,null,null,fixation,14722,,<p style='font-size: 48px;'>+</p>,,,,,,,,,,,,,,,,,,,,
,,,,,connector,119,447208,0.0-5.0-1.35,21,3,2023-03-10 00:25:55,a36334bc01f1c5e0abd0a9896a30f3f3,,"Mozilla/5.0 (Macintosh; Intel Mac OS X 10_15_7) AppleWebKit/605.1.15 (KHTML, like Gecko) Version/16.3 Safari/605.1.15",Macintosh,Safari,16.3,OS X,10_15_7,41962,9355,"[""TART"",""HOMEY""]",experiment,14722,,CHOCOLATE,"[""TART"",""ABSORBENT"",""HOMEY""]",0,citrus-tart,chocolate,"[""CLASSIFY"",""CONFIGURE"",""COMPETITION"",""ADORATION"",""APPROXIMATE"",""CITRUS"",""TRACKS"",""EXCEPTIONAL"",""CONSISTENT"",""TRAVERSE"",""OVERWHELMING"",""CONTRACEPTION"",""NIGHTINGALE"",""NAVEL"",""ABSORBENT"",""TART"",""LYRICS"",""WOODWORKER"",""HOMEY"",""DESK""]",0.0000904,53,high_a_low_p,,,,,,,,,,,,
,,,,,survey-text,120,447220,0.0-5.0-2.35,21,3,2023-03-10 00:25:55,a36334bc01f1c5e0abd0a9896a30f3f3,,"Mozilla/5.0 (Macintosh; Intel Mac OS X 10_15_7) AppleWebKit/605.1.15 (KHTML, like Gecko) Version/16.3 Safari/605.1.15",Macintosh,Safari,16.3,OS X,10_15_7,41962,,,attention,14722,,,,,,chocolate,,,,,0,,,,,,,,,,,
,,,,,html-keyboard-response,121,448224,0.0-5.0-0.36,21,3,2023-03-10 00:25:55,a36334bc01f1c5e0abd0a9896a30f3f3,,"Mozilla/5.0 (Macintosh; Intel Mac OS X 10_15_7) AppleWebKit/605.1.15 (KHTML, like Gecko) Version/16.3 Safari/605.1.15",Macintosh,Safari,16.3,OS X,10_15_7,41962,null,null,fixation,14722,,<p style='font-size: 48px;'>+</p>,,,,,,,,,,,,,,,,,,,,
,,,,,connector,122,454590,0.0-5.0-1.36,21,3,2023-03-10 00:25:55,a36334bc01f1c5e0abd0a9896a30f3f3,,"Mozilla/5.0 (Macintosh; Intel Mac OS X 10_15_7) AppleWebKit/605.1.15 (KHTML, like Gecko) Version/16.3 Safari/605.1.15",Macintosh,Safari,16.3,OS X,10_15_7,41962,6361,"[""BOOKS"",""POLITICS""]",experiment,14722,,JUSTICE,"[""BOOKS"",""POLITICS""]",0,politics-government,justice,"[""SLEEPING"",""NICKNAME"",""DIVERSITY"",""UNDEAD"",""SKIT"",""BOOKS"",""PILOT"",""PEARLS"",""AXON"",""DISTINCTION"",""DEFEAT"",""FLANNEL"",""MUCH"",""POLITICS"",""BUTLER"",""PRESSING"",""GOVERNMENT"",""DIPLOMATIC"",""CLOSENESS"",""CAGE""]",0.0000901,2,low_a_low_p,,,,,,,,,,,,
,,,,,survey-text,123,454607,0.0-5.0-2.36,21,3,2023-03-10 00:25:55,a36334bc01f1c5e0abd0a9896a30f3f3,,"Mozilla/5.0 (Macintosh; Intel Mac OS X 10_15_7) AppleWebKit/605.1.15 (KHTML, like Gecko) Version/16.3 Safari/605.1.15",Macintosh,Safari,16.3,OS X,10_15_7,41962,,,attention,14722,,,,,,justice,,,,,0,,,,,,,,,,,
,,,,,html-keyboard-response,124,455613,0.0-5.0-0.37,21,3,2023-03-10 00:25:55,a36334bc01f1c5e0abd0a9896a30f3f3,,"Mozilla/5.0 (Macintosh; Intel Mac OS X 10_15_7) AppleWebKit/605.1.15 (KHTML, like Gecko) Version/16.3 Safari/605.1.15",Macintosh,Safari,16.3,OS X,10_15_7,41962,null,null,fixation,14722,,<p style='font-size: 48px;'>+</p>,,,,,,,,,,,,,,,,,,,,
,,,,,connector,125,464982,0.0-5.0-1.37,21,3,2023-03-10 00:25:55,a36334bc01f1c5e0abd0a9896a30f3f3,,"Mozilla/5.0 (Macintosh; Intel Mac OS X 10_15_7) AppleWebKit/605.1.15 (KHTML, like Gecko) Version/16.3 Safari/605.1.15",Macintosh,Safari,16.3,OS X,10_15_7,41962,9364,"[""RICHES"",""TERRIFIED""]",experiment,14722,,CORRUPT,"[""RICHES"",""TERRIFIED""]",0,spent-checkbook,corrupt,"[""THEIR"",""SABER"",""LANTERN"",""THYROID"",""HOLSTER"",""GAZELLE"",""COMPLEX"",""RUBY"",""STEADFAST"",""TERRIFIED"",""CELESTIAL"",""RICHES"",""VICTORY"",""BUSTLE"",""VOCABULARY"",""ASSORTMENT"",""WICKER"",""CHECKBOOK"",""ASTRONAUT"",""SPENT""]",0.0000981,2,low_a_low_p,,,,,,,,,,,,
,,,,,survey-text,126,464994,0.0-5.0-2.37,21,3,2023-03-10 00:25:55,a36334bc01f1c5e0abd0a9896a30f3f3,,"Mozilla/5.0 (Macintosh; Intel Mac OS X 10_15_7) AppleWebKit/605.1.15 (KHTML, like Gecko) Version/16.3 Safari/605.1.15",Macintosh,Safari,16.3,OS X,10_15_7,41962,,,attention,14722,,,,,,corrupt,,,,,0,,,,,,,,,,,
,,,,,html-keyboard-response,127,465998,0.0-5.0-0.38,21,3,2023-03-10 00:25:55,a36334bc01f1c5e0abd0a9896a30f3f3,,"Mozilla/5.0 (Macintosh; Intel Mac OS X 10_15_7) AppleWebKit/605.1.15 (KHTML, like Gecko) Version/16.3 Safari/605.1.15",Macintosh,Safari,16.3,OS X,10_15_7,41962,null,null,fixation,14722,,<p style='font-size: 48px;'>+</p>,,,,,,,,,,,,,,,,,,,,
,,,,,connector,128,471086,0.0-5.0-1.38,21,3,2023-03-10 00:25:55,a36334bc01f1c5e0abd0a9896a30f3f3,,"Mozilla/5.0 (Macintosh; Intel Mac OS X 10_15_7) AppleWebKit/605.1.15 (KHTML, like Gecko) Version/16.3 Safari/605.1.15",Macintosh,Safari,16.3,OS X,10_15_7,41962,5080,"[""AXE"",""FORM""]",experiment,14722,,SHARP,"[""AXE"",""FORM""]",0,screws-chisel,sharp,"[""VARIOUS"",""BARREN"",""PARTNER"",""KIMONO"",""CONSTIPATION"",""STAMP"",""EXHAUSTION"",""APPLAUSE"",""SCREWS"",""FORM"",""AMBASSADOR"",""INTER"",""INFLUENCE"",""PARAGRAPH"",""INSIDER"",""CAKE"",""SURGERY"",""CHISEL"",""AXE"",""PASTY""]",0.0000871,78,high_a_low_p,,,,,,,,,,,,
,,,,,survey-text,129,471099,0.0-5.0-2.38,21,3,2023-03-10 00:25:55,a36334bc01f1c5e0abd0a9896a30f3f3,,"Mozilla/5.0 (Macintosh; Intel Mac OS X 10_15_7) AppleWebKit/605.1.15 (KHTML, like Gecko) Version/16.3 Safari/605.1.15",Macintosh,Safari,16.3,OS X,10_15_7,41962,,,attention,14722,,,,,,sharp,,,,,0,,,,,,,,,,,
,,,,,html-keyboard-response,130,472104,0.0-5.0-0.39,21,3,2023-03-10 00:25:55,a36334bc01f1c5e0abd0a9896a30f3f3,,"Mozilla/5.0 (Macintosh; Intel Mac OS X 10_15_7) AppleWebKit/605.1.15 (KHTML, like Gecko) Version/16.3 Safari/605.1.15",Macintosh,Safari,16.3,OS X,10_15_7,41962,null,null,fixation,14722,,<p style='font-size: 48px;'>+</p>,,,,,,,,,,,,,,,,,,,,
,,,,,connector,131,478219,0.0-5.0-1.39,21,3,2023-03-10 00:25:55,a36334bc01f1c5e0abd0a9896a30f3f3,,"Mozilla/5.0 (Macintosh; Intel Mac OS X 10_15_7) AppleWebKit/605.1.15 (KHTML, like Gecko) Version/16.3 Safari/605.1.15",Macintosh,Safari,16.3,OS X,10_15_7,41962,6106,"[""SPEEDOMETER"",""MUSTANG""]",experiment,14722,,DASHBOARD,"[""SPEEDOMETER"",""MUSTANG""]",0,speedometer-jeep,dashboard,"[""ANOTHER"",""SELECT"",""PLEASURE"",""CIGAR"",""SPENDING"",""SURVIVAL"",""GRIMACE"",""LOOSE"",""ARCHAIC"",""SPEEDOMETER"",""SOFTBALL"",""EXPLORATION"",""MUSTANG"",""ASPIRE"",""WEASEL"",""JEEP"",""ANDROID"",""STONED"",""SUBSTITUTE"",""VISITOR""]",0.000187651,8,low_a_high_p,,,,,,,,,,,,
,,,,,survey-text,132,491144,0.0-5.0-2.39,21,3,2023-03-10 00:25:55,a36334bc01f1c5e0abd0a9896a30f3f3,,"Mozilla/5.0 (Macintosh; Intel Mac OS X 10_15_7) AppleWebKit/605.1.15 (KHTML, like Gecko) Version/16.3 Safari/605.1.15",Macintosh,Safari,16.3,OS X,10_15_7,41962,12913,speed,attention,14722,,,,,,dashboard,,,,,1,false,,,,,,,,,,
,,,,,html-keyboard-response,133,492148,0.0-5.0-0.40,21,3,2023-03-10 00:25:55,a36334bc01f1c5e0abd0a9896a30f3f3,,"Mozilla/5.0 (Macintosh; Intel Mac OS X 10_15_7) AppleWebKit/605.1.15 (KHTML, like Gecko) Version/16.3 Safari/605.1.15",Macintosh,Safari,16.3,OS X,10_15_7,41962,null,null,fixation,14722,,<p style='font-size: 48px;'>+</p>,,,,,,,,,,,,,,,,,,,,
,,,,,connector,134,499417,0.0-5.0-1.40,21,3,2023-03-10 00:25:55,a36334bc01f1c5e0abd0a9896a30f3f3,,"Mozilla/5.0 (Macintosh; Intel Mac OS X 10_15_7) AppleWebKit/605.1.15 (KHTML, like Gecko) Version/16.3 Safari/605.1.15",Macintosh,Safari,16.3,OS X,10_15_7,41962,7262,"[""BUYER"",""BANKS""]",experiment,14722,,COMMERCE,"[""BUYER"",""BANKS""]",0,buyer-earner,commerce,"[""MADLY"",""SWOLLEN"",""PITCH"",""CENTURY"",""UNDERGROUND"",""KNITTING"",""PREACHER"",""PRODIGAL"",""INTRICATE"",""BOILED"",""BUYER"",""DISGUST"",""TELESCOPE"",""RELATIVITY"",""AID"",""TWEET"",""ARTICHOKE"",""TUNNEL"",""EARNER"",""BANKS""]",0.000177755,3,low_a_high_p,,,,,,,,,,,,
,,,,,survey-text,135,499428,0.0-5.0-2.40,21,3,2023-03-10 00:25:55,a36334bc01f1c5e0abd0a9896a30f3f3,,"Mozilla/5.0 (Macintosh; Intel Mac OS X 10_15_7) AppleWebKit/605.1.15 (KHTML, like Gecko) Version/16.3 Safari/605.1.15",Macintosh,Safari,16.3,OS X,10_15_7,41962,,,attention,14722,,,,,,commerce,,,,,0,,,,,,,,,,,
,,,,,html-keyboard-response,136,500433,0.0-5.0-0.41,21,3,2023-03-10 00:25:55,a36334bc01f1c5e0abd0a9896a30f3f3,,"Mozilla/5.0 (Macintosh; Intel Mac OS X 10_15_7) AppleWebKit/605.1.15 (KHTML, like Gecko) Version/16.3 Safari/605.1.15",Macintosh,Safari,16.3,OS X,10_15_7,41962,null,null,fixation,14722,,<p style='font-size: 48px;'>+</p>,,,,,,,,,,,,,,,,,,,,
,,,,,connector,137,506355,0.0-5.0-1.41,21,3,2023-03-10 00:25:55,a36334bc01f1c5e0abd0a9896a30f3f3,,"Mozilla/5.0 (Macintosh; Intel Mac OS X 10_15_7) AppleWebKit/605.1.15 (KHTML, like Gecko) Version/16.3 Safari/605.1.15",Macintosh,Safari,16.3,OS X,10_15_7,41962,5917,"[""BANK"",""TIPS""]",experiment,14722,,COST,"[""BANK"",""TIPS""]",0,auction-bank,cost,"[""RESIGNATION"",""BANK"",""TUB"",""BUBBLING"",""INQUISITIVE"",""FLUORESCENT"",""SHUTTLE"",""TIPS"",""SHAVE"",""AUCTION"",""SCULPTURE"",""WOODSMAN"",""PARALLEL"",""FOLLOWING"",""LEPRECHAUN"",""USUAL"",""PEPPERONI"",""TOGETHERNESS"",""GALOSHES"",""INTRODUCTION""]",0.000169178,20,high_a_high_p,,,,,,,,,,,,
,,,,,survey-text,138,506367,0.0-5.0-2.41,21,3,2023-03-10 00:25:55,a36334bc01f1c5e0abd0a9896a30f3f3,,"Mozilla/5.0 (Macintosh; Intel Mac OS X 10_15_7) AppleWebKit/605.1.15 (KHTML, like Gecko) Version/16.3 Safari/605.1.15",Macintosh,Safari,16.3,OS X,10_15_7,41962,,,attention,14722,,,,,,cost,,,,,0,,,,,,,,,,,
,,,,,html-keyboard-response,139,507372,0.0-5.0-0.42,21,3,2023-03-10 00:25:55,a36334bc01f1c5e0abd0a9896a30f3f3,,"Mozilla/5.0 (Macintosh; Intel Mac OS X 10_15_7) AppleWebKit/605.1.15 (KHTML, like Gecko) Version/16.3 Safari/605.1.15",Macintosh,Safari,16.3,OS X,10_15_7,41962,null,null,fixation,14722,,<p style='font-size: 48px;'>+</p>,,,,,,,,,,,,,,,,,,,,
,,,,,connector,140,517529,0.0-5.0-1.42,21,3,2023-03-10 00:25:55,a36334bc01f1c5e0abd0a9896a30f3f3,,"Mozilla/5.0 (Macintosh; Intel Mac OS X 10_15_7) AppleWebKit/605.1.15 (KHTML, like Gecko) Version/16.3 Safari/605.1.15",Macintosh,Safari,16.3,OS X,10_15_7,41962,10151,"[""PIETY"",""REBELLION""]",experiment,14722,,MASSES,"[""PIETY"",""REBELLION""]",0,piety-bless,masses,"[""LIEUTENANT"",""FOOT"",""HAUNTED"",""BLESS"",""BANJO"",""REBELLION"",""PIETY"",""APEX"",""SPOT"",""FUZZY"",""BOND"",""MARK"",""SMELL"",""RELIABLE"",""TEMPERATURE"",""TIDE"",""CLAY"",""SUGGEST"",""OREGANO"",""PROPHET""]",0.0000944,2,low_a_low_p,,,,,,,,,,,,
,,,,,survey-text,141,517541,0.0-5.0-2.42,21,3,2023-03-10 00:25:55,a36334bc01f1c5e0abd0a9896a30f3f3,,"Mozilla/5.0 (Macintosh; Intel Mac OS X 10_15_7) AppleWebKit/605.1.15 (KHTML, like Gecko) Version/16.3 Safari/605.1.15",Macintosh,Safari,16.3,OS X,10_15_7,41962,,,attention,14722,,,,,,masses,,,,,0,,,,,,,,,,,
,,,,,html-keyboard-response,142,518546,0.0-5.0-0.43,21,3,2023-03-10 00:25:55,a36334bc01f1c5e0abd0a9896a30f3f3,,"Mozilla/5.0 (Macintosh; Intel Mac OS X 10_15_7) AppleWebKit/605.1.15 (KHTML, like Gecko) Version/16.3 Safari/605.1.15",Macintosh,Safari,16.3,OS X,10_15_7,41962,null,null,fixation,14722,,<p style='font-size: 48px;'>+</p>,,,,,,,,,,,,,,,,,,,,
,,,,,connector,143,524452,0.0-5.0-1.43,21,3,2023-03-10 00:25:55,a36334bc01f1c5e0abd0a9896a30f3f3,,"Mozilla/5.0 (Macintosh; Intel Mac OS X 10_15_7) AppleWebKit/605.1.15 (KHTML, like Gecko) Version/16.3 Safari/605.1.15",Macintosh,Safari,16.3,OS X,10_15_7,41962,5898,"[""TRACK"",""TENNIS""]",experiment,14722,,SPRING,"[""TRACK"",""TENNIS""]",0,saturate-drops,spring,"[""CIRCUIT"",""STUDIOUS"",""TRACK"",""UNLESS"",""PINCH"",""GIRAFFE"",""SWIMMING"",""GREETINGS"",""FINANCE"",""TENNIS"",""ASTEROID"",""PONY"",""SPIKES"",""PROBLEMS"",""SATURATE"",""BLEEDING"",""MEDICATION"",""DROPS"",""OBSERVATION"",""BURY""]",0.000092,9,low_a_low_p,,,,,,,,,,,,
,,,,,survey-text,144,524465,0.0-5.0-2.43,21,3,2023-03-10 00:25:55,a36334bc01f1c5e0abd0a9896a30f3f3,,"Mozilla/5.0 (Macintosh; Intel Mac OS X 10_15_7) AppleWebKit/605.1.15 (KHTML, like Gecko) Version/16.3 Safari/605.1.15",Macintosh,Safari,16.3,OS X,10_15_7,41962,,,attention,14722,,,,,,spring,,,,,0,,,,,,,,,,,
,,,,,html-keyboard-response,145,525469,0.0-5.0-0.44,21,3,2023-03-10 00:25:55,a36334bc01f1c5e0abd0a9896a30f3f3,,"Mozilla/5.0 (Macintosh; Intel Mac OS X 10_15_7) AppleWebKit/605.1.15 (KHTML, like Gecko) Version/16.3 Safari/605.1.15",Macintosh,Safari,16.3,OS X,10_15_7,41962,null,null,fixation,14722,,<p style='font-size: 48px;'>+</p>,,,,,,,,,,,,,,,,,,,,
,,,,,connector,146,532409,0.0-5.0-1.44,21,3,2023-03-10 00:25:55,a36334bc01f1c5e0abd0a9896a30f3f3,,"Mozilla/5.0 (Macintosh; Intel Mac OS X 10_15_7) AppleWebKit/605.1.15 (KHTML, like Gecko) Version/16.3 Safari/605.1.15",Macintosh,Safari,16.3,OS X,10_15_7,41962,6933,"[""WALKWAY"",""ATTIRE""]",experiment,14722,,SHOES,"[""WALKWAY"",""ATTIRE""]",0,baggy-suspenders,shoes,"[""COG"",""DISCUS"",""BAGGY"",""SUSPENDERS"",""ANTIBIOTIC"",""MINGLE"",""WALKWAY"",""WEIGHTLESS"",""INTELLECTUAL"",""MONK"",""SNEAKING"",""AFFIRMATIVE"",""SCYTHE"",""BUMPS"",""PRESCHOOL"",""ROBIN"",""TEASE"",""CEREAL"",""SKEPTIC"",""ATTIRE""]",0.0000862,44,high_a_low_p,,,,,,,,,,,,
,,,,,survey-text,147,532420,0.0-5.0-2.44,21,3,2023-03-10 00:25:55,a36334bc01f1c5e0abd0a9896a30f3f3,,"Mozilla/5.0 (Macintosh; Intel Mac OS X 10_15_7) AppleWebKit/605.1.15 (KHTML, like Gecko) Version/16.3 Safari/605.1.15",Macintosh,Safari,16.3,OS X,10_15_7,41962,,,attention,14722,,,,,,shoes,,,,,0,,,,,,,,,,,
,,,,,html-keyboard-response,148,533425,0.0-5.0-0.45,21,3,2023-03-10 00:25:55,a36334bc01f1c5e0abd0a9896a30f3f3,,"Mozilla/5.0 (Macintosh; Intel Mac OS X 10_15_7) AppleWebKit/605.1.15 (KHTML, like Gecko) Version/16.3 Safari/605.1.15",Macintosh,Safari,16.3,OS X,10_15_7,41962,null,null,fixation,14722,,<p style='font-size: 48px;'>+</p>,,,,,,,,,,,,,,,,,,,,
,,,,,connector,149,544441,0.0-5.0-1.45,21,3,2023-03-10 00:25:55,a36334bc01f1c5e0abd0a9896a30f3f3,,"Mozilla/5.0 (Macintosh; Intel Mac OS X 10_15_7) AppleWebKit/605.1.15 (KHTML, like Gecko) Version/16.3 Safari/605.1.15",Macintosh,Safari,16.3,OS X,10_15_7,41962,11009,"[""SHOE"",""TOOTHACHE""]",experiment,14722,,CREAM,"[""SHOE"",""VACCINATION"",""TOOTHACHE""]",0,peaches-mandarin,cream,"[""SKITTISH"",""AUDIENCE"",""VACCINATION"",""DETER"",""ELEPHANT"",""INSIGHTFUL"",""SHOE"",""CONSIDERATION"",""POTENT"",""ZODIAC"",""RESOURCES"",""OPTIMISTIC"",""BUCKLE"",""MANDARIN"",""PEACHES"",""BOLTS"",""SINNER"",""MIGRAINE"",""HONEYDEW"",""TOOTHACHE""]",0.0000883,144,high_a_low_p,,,,,,,,,,,,
,,,,,survey-text,150,544453,0.0-5.0-2.45,21,3,2023-03-10 00:25:55,a36334bc01f1c5e0abd0a9896a30f3f3,,"Mozilla/5.0 (Macintosh; Intel Mac OS X 10_15_7) AppleWebKit/605.1.15 (KHTML, like Gecko) Version/16.3 Safari/605.1.15",Macintosh,Safari,16.3,OS X,10_15_7,41962,,,attention,14722,,,,,,cream,,,,,0,,,,,,,,,,,
,,,,,html-keyboard-response,151,545458,0.0-5.0-0.46,21,3,2023-03-10 00:25:55,a36334bc01f1c5e0abd0a9896a30f3f3,,"Mozilla/5.0 (Macintosh; Intel Mac OS X 10_15_7) AppleWebKit/605.1.15 (KHTML, like Gecko) Version/16.3 Safari/605.1.15",Macintosh,Safari,16.3,OS X,10_15_7,41962,null,null,fixation,14722,,<p style='font-size: 48px;'>+</p>,,,,,,,,,,,,,,,,,,,,
,,,,,connector,152,558577,0.0-5.0-1.46,21,3,2023-03-10 00:25:55,a36334bc01f1c5e0abd0a9896a30f3f3,,"Mozilla/5.0 (Macintosh; Intel Mac OS X 10_15_7) AppleWebKit/605.1.15 (KHTML, like Gecko) Version/16.3 Safari/605.1.15",Macintosh,Safari,16.3,OS X,10_15_7,41962,13108,"[""NEEDLE"",""ACHING""]",experiment,14722,,FREE,"[""NEEDLE"",""ACHING""]",0,gluten-flour,free,"[""GLUTEN"",""CUSTOMER"",""FLOUR"",""MOLDY"",""CROSSROAD"",""UNDESIRABLE"",""DOLLARS"",""SURROUNDED"",""RESTART"",""CREST"",""CURTAIN"",""CHEERLEADER"",""MOLECULE"",""NEEDLE"",""PROGRAMMING"",""MAJESTY"",""RUFFLE"",""ACHING"",""FEROCIOUS"",""EXCITE""]",0.0000836,131,high_a_low_p,,,,,,,,,,,,
,,,,,survey-text,153,558601,0.0-5.0-2.46,21,3,2023-03-10 00:25:55,a36334bc01f1c5e0abd0a9896a30f3f3,,"Mozilla/5.0 (Macintosh; Intel Mac OS X 10_15_7) AppleWebKit/605.1.15 (KHTML, like Gecko) Version/16.3 Safari/605.1.15",Macintosh,Safari,16.3,OS X,10_15_7,41962,,,attention,14722,,,,,,free,,,,,0,,,,,,,,,,,
,,,,,html-keyboard-response,154,559607,0.0-5.0-0.47,21,3,2023-03-10 00:25:55,a36334bc01f1c5e0abd0a9896a30f3f3,,"Mozilla/5.0 (Macintosh; Intel Mac OS X 10_15_7) AppleWebKit/605.1.15 (KHTML, like Gecko) Version/16.3 Safari/605.1.15",Macintosh,Safari,16.3,OS X,10_15_7,41962,null,null,fixation,14722,,<p style='font-size: 48px;'>+</p>,,,,,,,,,,,,,,,,,,,,
,,,,,connector,155,566412,0.0-5.0-1.47,21,3,2023-03-10 00:25:55,a36334bc01f1c5e0abd0a9896a30f3f3,,"Mozilla/5.0 (Macintosh; Intel Mac OS X 10_15_7) AppleWebKit/605.1.15 (KHTML, like Gecko) Version/16.3 Safari/605.1.15",Macintosh,Safari,16.3,OS X,10_15_7,41962,6798,"[""BATHING"",""HOSE""]",experiment,14722,,FLUID,"[""BATHING"",""HOSE""]",1,hose-bathing,fluid,"[""HOSE"",""INBETWEEN"",""EMAIL"",""DOWNHILL"",""OUTLAW"",""VEGAN"",""VIPER"",""SCRAMBLE"",""BRAVERY"",""TERRIBLE"",""GLOWING"",""ENCLOSURE"",""CERTAIN"",""BATHING"",""STOCK"",""APPREHEND"",""CHIC"",""QUENCH"",""REQUEST"",""GLORIOUS""]",0.000156308,20,high_a_high_p,,,,,,,,,,,,
,,,,,survey-text,156,566424,0.0-5.0-2.47,21,3,2023-03-10 00:25:55,a36334bc01f1c5e0abd0a9896a30f3f3,,"Mozilla/5.0 (Macintosh; Intel Mac OS X 10_15_7) AppleWebKit/605.1.15 (KHTML, like Gecko) Version/16.3 Safari/605.1.15",Macintosh,Safari,16.3,OS X,10_15_7,41962,,,attention,14722,,,,,,fluid,,,,,0,,,,,,,,,,,
,,,,,html-keyboard-response,157,567428,0.0-5.0-0.48,21,3,2023-03-10 00:25:55,a36334bc01f1c5e0abd0a9896a30f3f3,,"Mozilla/5.0 (Macintosh; Intel Mac OS X 10_15_7) AppleWebKit/605.1.15 (KHTML, like Gecko) Version/16.3 Safari/605.1.15",Macintosh,Safari,16.3,OS X,10_15_7,41962,null,null,fixation,14722,,<p style='font-size: 48px;'>+</p>,,,,,,,,,,,,,,,,,,,,
,,,,,connector,158,579253,0.0-5.0-1.48,21,3,2023-03-10 00:25:55,a36334bc01f1c5e0abd0a9896a30f3f3,,"Mozilla/5.0 (Macintosh; Intel Mac OS X 10_15_7) AppleWebKit/605.1.15 (KHTML, like Gecko) Version/16.3 Safari/605.1.15",Macintosh,Safari,16.3,OS X,10_15_7,41962,11820,"[""PUNCH"",""STRIKE""]",experiment,14722,,SLAP,"[""TENDER"",""WORTHY"",""PUNCH"",""STRIKE""]",1,punch-strike,slap,"[""FAD"",""PROVEN"",""CALORIES"",""PUNCH"",""FLAN"",""FRIDGE"",""DIFFERENCE"",""WORTHY"",""TENDER"",""DAWN"",""SATURATED"",""FAST"",""GLOVE"",""UNKEMPT"",""AIRLINE"",""SHALLOW"",""CERTAINTY"",""UPGRADE"",""LIFT"",""STRIKE""]",0.000163397,43,high_a_high_p,,,,,,,,,,,,
,,,,,survey-text,159,579261,0.0-5.0-2.48,21,3,2023-03-10 00:25:55,a36334bc01f1c5e0abd0a9896a30f3f3,,"Mozilla/5.0 (Macintosh; Intel Mac OS X 10_15_7) AppleWebKit/605.1.15 (KHTML, like Gecko) Version/16.3 Safari/605.1.15",Macintosh,Safari,16.3,OS X,10_15_7,41962,,,attention,14722,,,,,,slap,,,,,0,,,,,,,,,,,
,,,,,html-keyboard-response,160,580265,0.0-5.0-0.49,21,3,2023-03-10 00:25:55,a36334bc01f1c5e0abd0a9896a30f3f3,,"Mozilla/5.0 (Macintosh; Intel Mac OS X 10_15_7) AppleWebKit/605.1.15 (KHTML, like Gecko) Version/16.3 Safari/605.1.15",Macintosh,Safari,16.3,OS X,10_15_7,41962,null,null,fixation,14722,,<p style='font-size: 48px;'>+</p>,,,,,,,,,,,,,,,,,,,,
,,,,,connector,161,584687,0.0-5.0-1.49,21,3,2023-03-10 00:25:55,a36334bc01f1c5e0abd0a9896a30f3f3,,"Mozilla/5.0 (Macintosh; Intel Mac OS X 10_15_7) AppleWebKit/605.1.15 (KHTML, like Gecko) Version/16.3 Safari/605.1.15",Macintosh,Safari,16.3,OS X,10_15_7,41962,4414,"[""RATIONAL"",""INSECT""]",experiment,14722,,SMALL,"[""RATIONAL"",""INSECT""]",0,parasite-insect,small,"[""STEALTHY"",""PIERCING"",""SHARE"",""SCOOTER"",""PARASITE"",""ARE"",""RATIONAL"",""COLLABORATE"",""HEIGHTS"",""DETECTIVE"",""IMPROVEMENT"",""MUNCH"",""INSECT"",""WORMS"",""PLAN"",""MONTHS"",""RANK"",""TRAINEE"",""IRRELEVANT"",""ANTHEM""]",0.0000858,85,high_a_low_p,,,,,,,,,,,,
,,,,,survey-text,162,588269,0.0-5.0-2.49,21,3,2023-03-10 00:25:55,a36334bc01f1c5e0abd0a9896a30f3f3,,"Mozilla/5.0 (Macintosh; Intel Mac OS X 10_15_7) AppleWebKit/605.1.15 (KHTML, like Gecko) Version/16.3 Safari/605.1.15",Macintosh,Safari,16.3,OS X,10_15_7,41962,3574,small,attention,14722,,,,,,small,,,,,1,true,,,,,,,,,,
,,,,,html-keyboard-response,163,589274,0.0-5.0-0.50,21,3,2023-03-10 00:25:55,a36334bc01f1c5e0abd0a9896a30f3f3,,"Mozilla/5.0 (Macintosh; Intel Mac OS X 10_15_7) AppleWebKit/605.1.15 (KHTML, like Gecko) Version/16.3 Safari/605.1.15",Macintosh,Safari,16.3,OS X,10_15_7,41962,null,null,fixation,14722,,<p style='font-size: 48px;'>+</p>,,,,,,,,,,,,,,,,,,,,
,,,,,connector,164,596986,0.0-5.0-1.50,21,3,2023-03-10 00:25:55,a36334bc01f1c5e0abd0a9896a30f3f3,,"Mozilla/5.0 (Macintosh; Intel Mac OS X 10_15_7) AppleWebKit/605.1.15 (KHTML, like Gecko) Version/16.3 Safari/605.1.15",Macintosh,Safari,16.3,OS X,10_15_7,41962,7705,"[""SMILES"",""PERKY""]",experiment,14722,,TEETH,"[""SMILES"",""PERKY""]",1,perky-smiles,teeth,"[""NIGHT"",""MONITOR"",""FITNESS"",""MEDIAN"",""DID"",""SMILES"",""CONSOLE"",""PERKY"",""AUTHORITY"",""TEN"",""GODDESS"",""COMPLETION"",""SAGE"",""CHALKBOARD"",""DRAMATIC"",""CURSE"",""PLEASURABLE"",""AROUND"",""DAZE"",""VISA""]",0.0000912,140,high_a_low_p,,,,,,,,,,,,
,,,,,survey-text,165,596993,0.0-5.0-2.50,21,3,2023-03-10 00:25:55,a36334bc01f1c5e0abd0a9896a30f3f3,,"Mozilla/5.0 (Macintosh; Intel Mac OS X 10_15_7) AppleWebKit/605.1.15 (KHTML, like Gecko) Version/16.3 Safari/605.1.15",Macintosh,Safari,16.3,OS X,10_15_7,41962,,,attention,14722,,,,,,teeth,,,,,0,,,,,,,,,,,
,,,,,html-keyboard-response,166,597997,0.0-5.0-0.51,21,3,2023-03-10 00:25:55,a36334bc01f1c5e0abd0a9896a30f3f3,,"Mozilla/5.0 (Macintosh; Intel Mac OS X 10_15_7) AppleWebKit/605.1.15 (KHTML, like Gecko) Version/16.3 Safari/605.1.15",Macintosh,Safari,16.3,OS X,10_15_7,41962,null,null,fixation,14722,,<p style='font-size: 48px;'>+</p>,,,,,,,,,,,,,,,,,,,,
,,,,,connector,167,602809,0.0-5.0-1.51,21,3,2023-03-10 00:25:55,a36334bc01f1c5e0abd0a9896a30f3f3,,"Mozilla/5.0 (Macintosh; Intel Mac OS X 10_15_7) AppleWebKit/605.1.15 (KHTML, like Gecko) Version/16.3 Safari/605.1.15",Macintosh,Safari,16.3,OS X,10_15_7,41962,4804,"[""ANTISEPTIC"",""WATER""]",experiment,14722,,FOUNTAIN,"[""ANTISEPTIC"",""WATER""]",0,water-baptize,fountain,"[""DEAL"",""WADDLE"",""THIRST"",""FINALE"",""LIVID"",""GRUB"",""LOCOMOTIVE"",""AFFECT"",""LOTTERY"",""HELPFUL"",""ANTISEPTIC"",""SUNFLOWER"",""PSYCHOSIS"",""FEET"",""BAPTIZE"",""GRUNT"",""WATER"",""FORECAST"",""TERMITES"",""TEENAGERS""]",0.000172177,1,low_a_high_p,,,,,,,,,,,,
,,,,,survey-text,168,602820,0.0-5.0-2.51,21,3,2023-03-10 00:25:55,a36334bc01f1c5e0abd0a9896a30f3f3,,"Mozilla/5.0 (Macintosh; Intel Mac OS X 10_15_7) AppleWebKit/605.1.15 (KHTML, like Gecko) Version/16.3 Safari/605.1.15",Macintosh,Safari,16.3,OS X,10_15_7,41962,,,attention,14722,,,,,,fountain,,,,,0,,,,,,,,,,,
,,,,,html-keyboard-response,169,603826,0.0-5.0-0.52,21,3,2023-03-10 00:25:55,a36334bc01f1c5e0abd0a9896a30f3f3,,"Mozilla/5.0 (Macintosh; Intel Mac OS X 10_15_7) AppleWebKit/605.1.15 (KHTML, like Gecko) Version/16.3 Safari/605.1.15",Macintosh,Safari,16.3,OS X,10_15_7,41962,null,null,fixation,14722,,<p style='font-size: 48px;'>+</p>,,,,,,,,,,,,,,,,,,,,
,,,,,connector,170,617916,0.0-5.0-1.52,21,3,2023-03-10 00:25:55,a36334bc01f1c5e0abd0a9896a30f3f3,,"Mozilla/5.0 (Macintosh; Intel Mac OS X 10_15_7) AppleWebKit/605.1.15 (KHTML, like Gecko) Version/16.3 Safari/605.1.15",Macintosh,Safari,16.3,OS X,10_15_7,41962,14085,"[""VENT"",""BRAMBLE""]",experiment,14722,,ANNOYANCE,"[""VENT"",""SCANDAL"",""BRAMBLE""]",0,vent-oxygen,annoyance,"[""CHOWDER"",""VENT"",""MONEY"",""GINGERBREAD"",""OBLIGATORY"",""ENLARGE"",""EYES"",""MALEVOLENT"",""OXYGEN"",""PLANES"",""CORNER"",""AUDITORIUM"",""APPLY"",""NEWBIE"",""ROOKIE"",""BOOGIE"",""POINTY"",""SEASONING"",""BRAMBLE"",""SCANDAL""]",0.0000881,2,low_a_low_p,,,,,,,,,,,,
,,,,,survey-text,171,617924,0.0-5.0-2.52,21,3,2023-03-10 00:25:55,a36334bc01f1c5e0abd0a9896a30f3f3,,"Mozilla/5.0 (Macintosh; Intel Mac OS X 10_15_7) AppleWebKit/605.1.15 (KHTML, like Gecko) Version/16.3 Safari/605.1.15",Macintosh,Safari,16.3,OS X,10_15_7,41962,,,attention,14722,,,,,,annoyance,,,,,0,,,,,,,,,,,
,,,,,html-keyboard-response,172,618928,0.0-5.0-0.53,21,3,2023-03-10 00:25:55,a36334bc01f1c5e0abd0a9896a30f3f3,,"Mozilla/5.0 (Macintosh; Intel Mac OS X 10_15_7) AppleWebKit/605.1.15 (KHTML, like Gecko) Version/16.3 Safari/605.1.15",Macintosh,Safari,16.3,OS X,10_15_7,41962,null,null,fixation,14722,,<p style='font-size: 48px;'>+</p>,,,,,,,,,,,,,,,,,,,,
,,,,,connector,173,626302,0.0-5.0-1.53,21,3,2023-03-10 00:25:55,a36334bc01f1c5e0abd0a9896a30f3f3,,"Mozilla/5.0 (Macintosh; Intel Mac OS X 10_15_7) AppleWebKit/605.1.15 (KHTML, like Gecko) Version/16.3 Safari/605.1.15",Macintosh,Safari,16.3,OS X,10_15_7,41962,7365,"[""VARIETY"",""VEX""]",experiment,14722,,INCONSISTENT,"[""VARIETY"",""VEX""]",0,variance-edit,inconsistent,"[""EDIT"",""PASTA"",""POUND"",""LURE"",""THREATEN"",""SCAR"",""SPIES"",""VARIETY"",""PAPRIKA"",""EMBRACE"",""SALOON"",""LIGHTEN"",""POWER"",""VARIANCE"",""PEARL"",""VEX"",""RARENESS"",""WEATHERMAN"",""LARGELY"",""SENDING""]",0.00009,1,low_a_low_p,,,,,,,,,,,,
,,,,,survey-text,174,626313,0.0-5.0-2.53,21,3,2023-03-10 00:25:55,a36334bc01f1c5e0abd0a9896a30f3f3,,"Mozilla/5.0 (Macintosh; Intel Mac OS X 10_15_7) AppleWebKit/605.1.15 (KHTML, like Gecko) Version/16.3 Safari/605.1.15",Macintosh,Safari,16.3,OS X,10_15_7,41962,,,attention,14722,,,,,,inconsistent,,,,,0,,,,,,,,,,,
,,,,,html-keyboard-response,175,627319,0.0-5.0-0.54,21,3,2023-03-10 00:25:55,a36334bc01f1c5e0abd0a9896a30f3f3,,"Mozilla/5.0 (Macintosh; Intel Mac OS X 10_15_7) AppleWebKit/605.1.15 (KHTML, like Gecko) Version/16.3 Safari/605.1.15",Macintosh,Safari,16.3,OS X,10_15_7,41962,null,null,fixation,14722,,<p style='font-size: 48px;'>+</p>,,,,,,,,,,,,,,,,,,,,
,,,,,connector,176,642564,0.0-5.0-1.54,21,3,2023-03-10 00:25:55,a36334bc01f1c5e0abd0a9896a30f3f3,,"Mozilla/5.0 (Macintosh; Intel Mac OS X 10_15_7) AppleWebKit/605.1.15 (KHTML, like Gecko) Version/16.3 Safari/605.1.15",Macintosh,Safari,16.3,OS X,10_15_7,41962,15235,"[""FLINT"",""LUBRICATION""]",experiment,14722,,HARD,"[""FLINT"",""LUBRICATION""]",0,addition-abacus,hard,"[""CONCLUSION"",""IMPLODE"",""SONNET"",""TALKER"",""ORNATE"",""LUBRICATION"",""MARGARINE"",""ACCOUNTING"",""ADVERSITY"",""BARBECUE"",""SHEER"",""FLINT"",""ABACUS"",""SCRIPT"",""GOATS"",""ADDITION"",""AMEND"",""RUCKUS"",""CRISP"",""PERSONAL""]",0.0000828,52,high_a_low_p,,,,,,,,,,,,
,,,,,survey-text,177,642573,0.0-5.0-2.54,21,3,2023-03-10 00:25:55,a36334bc01f1c5e0abd0a9896a30f3f3,,"Mozilla/5.0 (Macintosh; Intel Mac OS X 10_15_7) AppleWebKit/605.1.15 (KHTML, like Gecko) Version/16.3 Safari/605.1.15",Macintosh,Safari,16.3,OS X,10_15_7,41962,,,attention,14722,,,,,,hard,,,,,0,,,,,,,,,,,
,,,,,html-keyboard-response,178,643578,0.0-5.0-0.55,21,3,2023-03-10 00:25:55,a36334bc01f1c5e0abd0a9896a30f3f3,,"Mozilla/5.0 (Macintosh; Intel Mac OS X 10_15_7) AppleWebKit/605.1.15 (KHTML, like Gecko) Version/16.3 Safari/605.1.15",Macintosh,Safari,16.3,OS X,10_15_7,41962,null,null,fixation,14722,,<p style='font-size: 48px;'>+</p>,,,,,,,,,,,,,,,,,,,,
,,,,,connector,179,653585,0.0-5.0-1.55,21,3,2023-03-10 00:25:55,a36334bc01f1c5e0abd0a9896a30f3f3,,"Mozilla/5.0 (Macintosh; Intel Mac OS X 10_15_7) AppleWebKit/605.1.15 (KHTML, like Gecko) Version/16.3 Safari/605.1.15",Macintosh,Safari,16.3,OS X,10_15_7,41962,10002,"[""NICE"",""SOMETHING""]",experiment,14722,,GRACIOUS,"[""NICE"",""SOMETHING""]",0,courteous-nice,gracious,"[""HORMONE"",""MORTGAGE"",""MONOTONY"",""FAX"",""FRUSTRATION"",""BLINDS"",""LEAGUE"",""SLUDGE"",""BLUEPRINT"",""GRATITUDE"",""SOOT"",""NICE"",""KIDNAPPER"",""CONUNDRUM"",""BUNS"",""SOMETHING"",""INTOXICATE"",""AGAINST"",""COURTEOUS"",""CONSUMER""]",0.000190597,11,low_a_high_p,,,,,,,,,,,,
,,,,,survey-text,180,653597,0.0-5.0-2.55,21,3,2023-03-10 00:25:55,a36334bc01f1c5e0abd0a9896a30f3f3,,"Mozilla/5.0 (Macintosh; Intel Mac OS X 10_15_7) AppleWebKit/605.1.15 (KHTML, like Gecko) Version/16.3 Safari/605.1.15",Macintosh,Safari,16.3,OS X,10_15_7,41962,,,attention,14722,,,,,,gracious,,,,,0,,,,,,,,,,,
,,,,,html-keyboard-response,181,654602,0.0-5.0-0.56,21,3,2023-03-10 00:25:55,a36334bc01f1c5e0abd0a9896a30f3f3,,"Mozilla/5.0 (Macintosh; Intel Mac OS X 10_15_7) AppleWebKit/605.1.15 (KHTML, like Gecko) Version/16.3 Safari/605.1.15",Macintosh,Safari,16.3,OS X,10_15_7,41962,null,null,fixation,14722,,<p style='font-size: 48px;'>+</p>,,,,,,,,,,,,,,,,,,,,
,,,,,connector,182,663637,0.0-5.0-1.56,21,3,2023-03-10 00:25:55,a36334bc01f1c5e0abd0a9896a30f3f3,,"Mozilla/5.0 (Macintosh; Intel Mac OS X 10_15_7) AppleWebKit/605.1.15 (KHTML, like Gecko) Version/16.3 Safari/605.1.15",Macintosh,Safari,16.3,OS X,10_15_7,41962,9027,"[""FORK"",""BIRDIE""]",experiment,14722,,HOUSEFLY,"[""FORK"",""BIRDIE""]",0,wings-sparrow,housefly,"[""DONUT"",""WINGS"",""POLICE"",""IMPOVERISHED"",""FORK"",""LONE"",""DAGGER"",""FULFILL"",""HEARTBEAT"",""EXPLORING"",""ALTERNATE"",""CHARGE"",""SPARROW"",""MAGMA"",""FLEECE"",""REACH"",""HUH"",""INTEGRAL"",""EYELINER"",""BIRDIE""]",0.0000919,1,low_a_low_p,,,,,,,,,,,,
,,,,,survey-text,183,663649,0.0-5.0-2.56,21,3,2023-03-10 00:25:55,a36334bc01f1c5e0abd0a9896a30f3f3,,"Mozilla/5.0 (Macintosh; Intel Mac OS X 10_15_7) AppleWebKit/605.1.15 (KHTML, like Gecko) Version/16.3 Safari/605.1.15",Macintosh,Safari,16.3,OS X,10_15_7,41962,,,attention,14722,,,,,,housefly,,,,,0,,,,,,,,,,,
,,,,,html-keyboard-response,184,664655,0.0-5.0-0.57,21,3,2023-03-10 00:25:55,a36334bc01f1c5e0abd0a9896a30f3f3,,"Mozilla/5.0 (Macintosh; Intel Mac OS X 10_15_7) AppleWebKit/605.1.15 (KHTML, like Gecko) Version/16.3 Safari/605.1.15",Macintosh,Safari,16.3,OS X,10_15_7,41962,null,null,fixation,14722,,<p style='font-size: 48px;'>+</p>,,,,,,,,,,,,,,,,,,,,
,,,,,connector,185,671765,0.0-5.0-1.57,21,3,2023-03-10 00:25:55,a36334bc01f1c5e0abd0a9896a30f3f3,,"Mozilla/5.0 (Macintosh; Intel Mac OS X 10_15_7) AppleWebKit/605.1.15 (KHTML, like Gecko) Version/16.3 Safari/605.1.15",Macintosh,Safari,16.3,OS X,10_15_7,41962,7102,"[""MOVIE"",""BROADCAST""]",experiment,14722,,MEDIA,"[""MOVIE"",""BROADCAST""]",0,broadcast-television,media,"[""INTENSE"",""SQUINT"",""HANGOVER"",""BAKE"",""PRIOR"",""SIN"",""HEALTHY"",""ODD"",""AHOY"",""FORCES"",""TELEVISION"",""JAVELIN"",""MOVIE"",""HELLFIRE"",""BROADCAST"",""RAILWAY"",""LIPS"",""REPRESSION"",""PHYSIOLOGY"",""SLIM""]",0.000159417,28,high_a_high_p,,,,,,,,,,,,
,,,,,survey-text,186,671777,0.0-5.0-2.57,21,3,2023-03-10 00:25:55,a36334bc01f1c5e0abd0a9896a30f3f3,,"Mozilla/5.0 (Macintosh; Intel Mac OS X 10_15_7) AppleWebKit/605.1.15 (KHTML, like Gecko) Version/16.3 Safari/605.1.15",Macintosh,Safari,16.3,OS X,10_15_7,41962,,,attention,14722,,,,,,media,,,,,0,,,,,,,,,,,
,,,,,html-keyboard-response,187,672782,0.0-5.0-0.58,21,3,2023-03-10 00:25:55,a36334bc01f1c5e0abd0a9896a30f3f3,,"Mozilla/5.0 (Macintosh; Intel Mac OS X 10_15_7) AppleWebKit/605.1.15 (KHTML, like Gecko) Version/16.3 Safari/605.1.15",Macintosh,Safari,16.3,OS X,10_15_7,41962,null,null,fixation,14722,,<p style='font-size: 48px;'>+</p>,,,,,,,,,,,,,,,,,,,,
,,,,,connector,188,677344,0.0-5.0-1.58,21,3,2023-03-10 00:25:55,a36334bc01f1c5e0abd0a9896a30f3f3,,"Mozilla/5.0 (Macintosh; Intel Mac OS X 10_15_7) AppleWebKit/605.1.15 (KHTML, like Gecko) Version/16.3 Safari/605.1.15",Macintosh,Safari,16.3,OS X,10_15_7,41962,4550,"[""CONSCIENTIOUS"",""SENTIENT""]",experiment,14722,,REALIZATION,"[""CONSCIENTIOUS"",""SENTIENT""]",0,sentient-awareness,realization,"[""UNREALISTIC"",""VEGGIES"",""TIMING"",""SKIES"",""EARL"",""SLAY"",""SPEED"",""WAGON"",""STAFF"",""ARROGANCE"",""INSINUATE"",""EXCLUSION"",""DENSE"",""CONSCIENTIOUS"",""SENTIENT"",""ERODE"",""VARIANT"",""MANLY"",""VALIDATE"",""AWARENESS""]",0.000131812,6,low_a_high_p,,,,,,,,,,,,
,,,,,survey-text,189,677356,0.0-5.0-2.58,21,3,2023-03-10 00:25:55,a36334bc01f1c5e0abd0a9896a30f3f3,,"Mozilla/5.0 (Macintosh; Intel Mac OS X 10_15_7) AppleWebKit/605.1.15 (KHTML, like Gecko) Version/16.3 Safari/605.1.15",Macintosh,Safari,16.3,OS X,10_15_7,41962,,,attention,14722,,,,,,realization,,,,,0,,,,,,,,,,,
,,,,,html-keyboard-response,190,678362,0.0-5.0-0.59,21,3,2023-03-10 00:25:55,a36334bc01f1c5e0abd0a9896a30f3f3,,"Mozilla/5.0 (Macintosh; Intel Mac OS X 10_15_7) AppleWebKit/605.1.15 (KHTML, like Gecko) Version/16.3 Safari/605.1.15",Macintosh,Safari,16.3,OS X,10_15_7,41962,null,null,fixation,14722,,<p style='font-size: 48px;'>+</p>,,,,,,,,,,,,,,,,,,,,
,,,,,connector,191,684251,0.0-5.0-1.59,21,3,2023-03-10 00:25:55,a36334bc01f1c5e0abd0a9896a30f3f3,,"Mozilla/5.0 (Macintosh; Intel Mac OS X 10_15_7) AppleWebKit/605.1.15 (KHTML, like Gecko) Version/16.3 Safari/605.1.15",Macintosh,Safari,16.3,OS X,10_15_7,41962,5879,"[""BIBLICAL"",""PURGATORY""]",experiment,14722,,UNDERWORLD,"[""BIBLICAL"",""PURGATORY""]",0,purgatory-heaven,underworld,"[""PURGATORY"",""SLUR"",""SEDATIVE"",""BUM"",""HEAVEN"",""BROWN"",""INTERN"",""COMPATIBLE"",""SUPER"",""CLAMS"",""LEDGER"",""RELATED"",""CABINET"",""BLONDE"",""FORETHOUGHT"",""NET"",""MONTH"",""BIBLICAL"",""FINGERS"",""PANTS""]",0.000163131,16,high_a_high_p,,,,,,,,,,,,
,,,,,survey-text,192,688244,0.0-5.0-2.59,21,3,2023-03-10 00:25:55,a36334bc01f1c5e0abd0a9896a30f3f3,,"Mozilla/5.0 (Macintosh; Intel Mac OS X 10_15_7) AppleWebKit/605.1.15 (KHTML, like Gecko) Version/16.3 Safari/605.1.15",Macintosh,Safari,16.3,OS X,10_15_7,41962,3981,underworld,attention,14722,,,,,,underworld,,,,,1,true,,,,,,,,,,
,,,,,html-button-response,193,691745,0.0-6.0,21,3,2023-03-10 00:25:55,a36334bc01f1c5e0abd0a9896a30f3f3,,"Mozilla/5.0 (Macintosh; Intel Mac OS X 10_15_7) AppleWebKit/605.1.15 (KHTML, like Gecko) Version/16.3 Safari/605.1.15",Macintosh,Safari,16.3,OS X,10_15_7,41962,3497,0,demographics,14722,,"<p style='font-size: 20px; padding-right: 10%; padding-left: 10%'> You have completed the experiment portion! <br> <br> Before you are done, we would like you to answer some basic demographic questions. Note that your answers to these questions will not affect your compensation/credit. While some questions are required, you can choose to skip others that you do not feel comfortable answering. <br> <br> Click the button below to continue </p>",,,,,,,,,,,,,,,,,,,,
,,,,,html-button-response,194,694866,0.0-7.0-0.0,21,3,2023-03-10 00:25:55,a36334bc01f1c5e0abd0a9896a30f3f3,,"Mozilla/5.0 (Macintosh; Intel Mac OS X 10_15_7) AppleWebKit/605.1.15 (KHTML, like Gecko) Version/16.3 Safari/605.1.15",Macintosh,Safari,16.3,OS X,10_15_7,41962,3115,0,demographics,14722,,"<p style='font-size: 20px; padding-right: 10%; padding-left: 10%'> You have completed the experiment portion! <br> <br> Before you are done, we would like you to answer some basic demographic questions. Note that your answers to these questions will not affect your compensation/credit. While some questions are required, you can choose to skip others that you do not feel comfortable answering. <br> <br> Click the button below to continue </p>",,,,,,,,,,,,,,,,,,,,
,,,,,survey-text,195,701933,0.0-7.0-1.0,21,3,2023-03-10 00:25:55,a36334bc01f1c5e0abd0a9896a30f3f3,,"Mozilla/5.0 (Macintosh; Intel Mac OS X 10_15_7) AppleWebKit/605.1.15 (KHTML, like Gecko) Version/16.3 Safari/605.1.15",Macintosh,Safari,16.3,OS X,10_15_7,41962,7057,"{""age"":""18"",""gender"":""Female"",""education"":""12""}",demographics,14722,,,,,,,,,,,,,18,Female,12,,,,,,,
,,,,,survey-multi-select,196,705358,0.0-7.0-2.0,21,3,2023-03-10 00:25:55,a36334bc01f1c5e0abd0a9896a30f3f3,,"Mozilla/5.0 (Macintosh; Intel Mac OS X 10_15_7) AppleWebKit/605.1.15 (KHTML, like Gecko) Version/16.3 Safari/605.1.15",Macintosh,Safari,16.3,OS X,10_15_7,41962,3419,"{""race"":[""White/Caucasian""]}",demographics,14722,,,,,,,,,,,,,,,,[0],"[""White/Caucasian""]",,,,,
,,,,,survey-multi-choice,197,719438,0.0-7.0-3.0,21,3,2023-03-10 00:25:55,a36334bc01f1c5e0abd0a9896a30f3f3,,"Mozilla/5.0 (Macintosh; Intel Mac OS X 10_15_7) AppleWebKit/605.1.15 (KHTML, like Gecko) Version/16.3 Safari/605.1.15",Macintosh,Safari,16.3,OS X,10_15_7,41962,14071,"{""ethnicity"":""No"",""dominant_hand"":""Right"",""alert"":""Morning"",""english"":""Yes""}",demographics,14722,,,,,,,,,,,,,,,,"[0,1,2,3]",,No,Right,Morning,Yes,
,,,,,survey-text,198,719455,0.0-7.0-4.0,21,3,2023-03-10 00:25:55,a36334bc01f1c5e0abd0a9896a30f3f3,,"Mozilla/5.0 (Macintosh; Intel Mac OS X 10_15_7) AppleWebKit/605.1.15 (KHTML, like Gecko) Version/16.3 Safari/605.1.15",Macintosh,Safari,16.3,OS X,10_15_7,41962,,,not_english,14722,,,,,,,,,,,,,,,,,,,,,,
,,,,,survey-text,199,723339,0.0-7.0-5.0,21,3,2023-03-10 00:25:55,a36334bc01f1c5e0abd0a9896a30f3f3,,"Mozilla/5.0 (Macintosh; Intel Mac OS X 10_15_7) AppleWebKit/605.1.15 (KHTML, like Gecko) Version/16.3 Safari/605.1.15",Macintosh,Safari,16.3,OS X,10_15_7,41962,3873,"{""anything_else"":""no""}",demographics,14722,,,,,,,,,,,,,,,,,,,,,,no
,,,,,html-button-response,200,733041,0.0-8.0,21,3,2023-03-10 00:25:55,a36334bc01f1c5e0abd0a9896a30f3f3,,"Mozilla/5.0 (Macintosh; Intel Mac OS X 10_15_7) AppleWebKit/605.1.15 (KHTML, like Gecko) Version/16.3 Safari/605.1.15",Macintosh,Safari,16.3,OS X,10_15_7,41962,9698,0,debrief,14722,,"<p style='font-size: 20px; padding-right: 10%; padding-left: 10%'> This concludes the experiment. Thank you for your participation! <br> <br> If you want to learn more about this study, feel free to read this <a target='_blank' href='https://docs.google.com/document/d/1i8IoBbswSEUIXgkM1o68yRQSi3qYNkqx/edit?usp=sharing&ouid=101741936850660538660&rtpof=true&sd=true'>debrief<a> document, which explains the purpose and theory behind this research, and contains contact information for the experimenters. If this research interests you, feel free to explore our <a target='_blank' href='https://thelexiconlab.github.io/'>lab website</a> as well! <br> <br> IMPORTANT: Please return to this site and click 'Finish and Save' to save your data after reading. <br> <br> Once you have clicked 'Finish and Save,' you may close this tab. <br> <br> Thank you again!",,,,,,,,,,,,,,,,,,,,
true,false,[],[],[],preload,0,20,0.0-0.0,14,2,2023-03-09 17:16:14,a36334bc01f1c5e0abd0a9896a30f3f3,,"Mozilla/5.0 (Macintosh; Intel Mac OS X 10_15_7) AppleWebKit/605.1.15 (KHTML, like Gecko) Version/16.3 Safari/605.1.15",Macintosh,Safari,16.3,OS X,10_15_7,42037,,,,,,,,,,,,,,,,,,,,,,,,,,
,,,,,survey-text,1,3972,0.0-1.0,14,2,2023-03-09 17:16:14,a36334bc01f1c5e0abd0a9896a30f3f3,,"Mozilla/5.0 (Macintosh; Intel Mac OS X 10_15_7) AppleWebKit/605.1.15 (KHTML, like Gecko) Version/16.3 Safari/605.1.15",Macintosh,Safari,16.3,OS X,10_15_7,42037,3943,"{""id"":""AB""}",id,89978,AB,,,,,,,,,,,,,,,,,,,,,
,,,,,html-button-response,2,35747,0.0-2.0-0.0,14,2,2023-03-09 17:16:14,a36334bc01f1c5e0abd0a9896a30f3f3,,"Mozilla/5.0 (Macintosh; Intel Mac OS X 10_15_7) AppleWebKit/605.1.15 (KHTML, like Gecko) Version/16.3 Safari/605.1.15",Macintosh,Safari,16.3,OS X,10_15_7,42037,31773,0,instructions,89978,,"<p style='font-size: 20px; padding-right: 10%; padding-left: 10%'> Welcome to the Connector experiment, and thank you for choosing to participate! <br> <br> Please read the following instructions so that you know how to play the game: <br> <br> You will be shown a board of 20 words. In addition to the board, you will see a clue. You should think of this clue as coming from a friend or teammate, who is trying to indicate two of the words on the board without directly saying either of them. So, your goal is to interpret the clue and select the two words that you think are the most likely targets for that clue. <br> <br> You will see a wide variety of clues. Keep in mind that some clues are better than others, but all clues are intended to point you toward two of the words on the board. If you are ever unfamiliar with a word, please do not pause to look it up, as this will interfere with the data. Instead, please use the knowledge you already have and make selections to the best of your ability, as this will give the most authentic response. </p>",,,,,,,,,,,,,,,,,,,,
,,,,,html-button-response,3,57011,0.0-2.0-1.0,14,2,2023-03-09 17:16:14,a36334bc01f1c5e0abd0a9896a30f3f3,,"Mozilla/5.0 (Macintosh; Intel Mac OS X 10_15_7) AppleWebKit/605.1.15 (KHTML, like Gecko) Version/16.3 Safari/605.1.15",Macintosh,Safari,16.3,OS X,10_15_7,42037,21260,0,instructions,89978,,"<p style='font-size: 20px; padding-right: 10%; padding-left: 10%'> For example, consider the board below. Here, the clue is FOOD, and our player currently has FAMINE and CALORIE selected. <br> <br> <img src='example.png' style='border: 2px solid black'> <br> <br> When you are playing, simply click on words to select them. The words you click will turn green as a confirmation that they have been selected. If you accidentally click a word, or if you wish to change your choice, simply click a selected word to unselect it, and it will go back to gray. When exactly two words are selected, the Enter Responses button will illuminate. Once you are satisfied with your choices, click the Enter Responses button, and the experiment will automatically move to the next trial. <br> <br> To familiarize you with the game, there are four practice trials. As you play the game, be sure to attend to both speed and accuracy. In other words, make guesses that you think are likely to be correct, but don't linger too long on any one board. When you are ready, click the button below to begin. <br> <br> There will be a pause between the practice trials and the experimental trials. </p>",,,,,,,,,,,,,,,,,,,,
,,,,,html-keyboard-response,4,58015,0.0-3.0-0.0,14,2,2023-03-09 17:16:14,a36334bc01f1c5e0abd0a9896a30f3f3,,"Mozilla/5.0 (Macintosh; Intel Mac OS X 10_15_7) AppleWebKit/605.1.15 (KHTML, like Gecko) Version/16.3 Safari/605.1.15",Macintosh,Safari,16.3,OS X,10_15_7,42037,null,null,fixation,89978,,<p style='font-size: 48px;'>+</p>,,,,,,,,,,,,,,,,,,,,
,,,,,connector,5,66884,0.0-3.0-1.0,14,2,2023-03-09 17:16:14,a36334bc01f1c5e0abd0a9896a30f3f3,,"Mozilla/5.0 (Macintosh; Intel Mac OS X 10_15_7) AppleWebKit/605.1.15 (KHTML, like Gecko) Version/16.3 Safari/605.1.15",Macintosh,Safari,16.3,OS X,10_15_7,42037,8865,"[""DATING"",""BOYFRIEND""]",practice,89978,,ROMANCE,"[""DATING"",""BOYFRIEND""]",1,dating-boyfriend,romance,"[""LAP"",""MULTICULTURAL"",""INTRUSIVE"",""GEL"",""VISUALIZE"",""DATING"",""WIMP"",""EVANGELICAL"",""PILE"",""PUDDLE"",""BICEPS"",""CREVASSE"",""BOYFRIEND"",""LEGEND"",""HAIL"",""SCALES"",""BOTHER"",""BUST"",""WINDOW"",""ATTRACT""]",0.000165017,34,high_a_high_p,,,,,,,,,,,,
,,,,,html-keyboard-response,6,67887,0.0-3.0-0.1,14,2,2023-03-09 17:16:14,a36334bc01f1c5e0abd0a9896a30f3f3,,"Mozilla/5.0 (Macintosh; Intel Mac OS X 10_15_7) AppleWebKit/605.1.15 (KHTML, like Gecko) Version/16.3 Safari/605.1.15",Macintosh,Safari,16.3,OS X,10_15_7,42037,null,null,fixation,89978,,<p style='font-size: 48px;'>+</p>,,,,,,,,,,,,,,,,,,,,
,,,,,connector,7,79780,0.0-3.0-1.1,14,2,2023-03-09 17:16:14,a36334bc01f1c5e0abd0a9896a30f3f3,,"Mozilla/5.0 (Macintosh; Intel Mac OS X 10_15_7) AppleWebKit/605.1.15 (KHTML, like Gecko) Version/16.3 Safari/605.1.15",Macintosh,Safari,16.3,OS X,10_15_7,42037,11890,"[""LIFEGUARD"",""BOATING""]",practice,89978,,SWIMMER,"[""LIFEGUARD"",""BOATING""]",1,lifeguard-boating,swimmer,"[""MISFORTUNE"",""TAPS"",""BOATING"",""RETIREMENT"",""ADMISSION"",""TAKEOVER"",""DECOMPOSITION"",""ORANGES"",""LIGHTENING"",""RECEIVER"",""FOREVER"",""THRIFTY"",""STONE"",""REJOICE"",""PERIMETER"",""LIFEGUARD"",""GREED"",""STRIP"",""DIAGONAL"",""GUMMY""]",0.000168199,18,high_a_high_p,,,,,,,,,,,,
,,,,,html-keyboard-response,8,80784,0.0-3.0-0.2,14,2,2023-03-09 17:16:14,a36334bc01f1c5e0abd0a9896a30f3f3,,"Mozilla/5.0 (Macintosh; Intel Mac OS X 10_15_7) AppleWebKit/605.1.15 (KHTML, like Gecko) Version/16.3 Safari/605.1.15",Macintosh,Safari,16.3,OS X,10_15_7,42037,null,null,fixation,89978,,<p style='font-size: 48px;'>+</p>,,,,,,,,,,,,,,,,,,,,
,,,,,connector,9,113045,0.0-3.0-1.2,14,2,2023-03-09 17:16:14,a36334bc01f1c5e0abd0a9896a30f3f3,,"Mozilla/5.0 (Macintosh; Intel Mac OS X 10_15_7) AppleWebKit/605.1.15 (KHTML, like Gecko) Version/16.3 Safari/605.1.15",Macintosh,Safari,16.3,OS X,10_15_7,42037,32258,"[""RITUAL"",""FEATHER""]",practice,89978,,PEACOCK,"[""RITUAL"",""FEATHER""]",0,feather-toucan,peacock,"[""WHO"",""MENACE"",""GIANT"",""CLIFF"",""NONCHALANT"",""POSTERIOR"",""ENGAGE"",""SURRENDER"",""CATS"",""MUFFLED"",""FLIGHTY"",""FORTIFY"",""RITUAL"",""ENERGETIC"",""DONKEY"",""WALKING"",""FOOLISH"",""FOOTWEAR"",""FEATHER"",""TOUCAN""]",0.000183463,15,high_a_high_p,,,,,,,,,,,,
,,,,,html-keyboard-response,10,114049,0.0-3.0-0.3,14,2,2023-03-09 17:16:14,a36334bc01f1c5e0abd0a9896a30f3f3,,"Mozilla/5.0 (Macintosh; Intel Mac OS X 10_15_7) AppleWebKit/605.1.15 (KHTML, like Gecko) Version/16.3 Safari/605.1.15",Macintosh,Safari,16.3,OS X,10_15_7,42037,null,null,fixation,89978,,<p style='font-size: 48px;'>+</p>,,,,,,,,,,,,,,,,,,,,
,,,,,connector,11,126595,0.0-3.0-1.3,14,2,2023-03-09 17:16:14,a36334bc01f1c5e0abd0a9896a30f3f3,,"Mozilla/5.0 (Macintosh; Intel Mac OS X 10_15_7) AppleWebKit/605.1.15 (KHTML, like Gecko) Version/16.3 Safari/605.1.15",Macintosh,Safari,16.3,OS X,10_15_7,42037,12543,"[""SUPERNATURAL"",""SCARY""]",practice,89978,,SPOOKY,"[""SUPERNATURAL"",""SCARY""]",1,scary-supernatural,spooky,"[""MINTS"",""SUPERNATURAL"",""SHADOWY"",""PAL"",""FLORAL"",""PAINKILLER"",""VALID"",""MAIZE"",""SINCERE"",""SUBMISSION"",""ENSEMBLE"",""VINTAGE"",""KNOCK"",""MICROSCOPE"",""PAYBACK"",""UNDERDOG"",""AIMLESS"",""SKI"",""SCARY"",""PRESSURE""]",0.000186499,75,high_a_high_p,,,,,,,,,,,,
